Folder: ml/Raman_Spectroscopy_GAN/input/clinical_sample/s1

Note: Raman_Spectroscopy_GAN/input/clinical_sample/s1/s1_2_785M-T_Rlab.txt
##NAMES=
##LOCALITY=
##RRUFFID=
##CHEMISTRY=
320, 20.30437034730039
321, -3.791936442930819
322, -22.084276932974717
323, -23.550407253081175
324, -10.32439650023025
325, 15.455884923359918
326, 45.828872651016354
327, 46.35639880164672
328, 17.411445493029532
329, -4.322978230741683
330, -10.213186046497867
331, -8.989229715937654
332, -4.992318907528897
333, 2.327364365694848
334, 13.656948102406204
335, 23.996609171766067
336, 19.56704327678017
337, 3.051046906030024
338, -3.6942013804955423
339, 1.717141968480064
340, 7.5392601742705665
341, 8.92156137355596
342, 10.389940040809961
343, 15.081730093490478
344, 25.779078453399052
345, 45.257023134638985
346, 70.80806898227456
347, 91.46808551308368
348, 105.42302064501473
349, 106.07190411335341
350, 92.12697448475592
351, 76.61039738384443
352, 66.23184594526265
353, 60.206849436429366
354, 57.64722784338937
355, 59.161180738927214
356, 66.20962597933067
357, 75.86129809159866
358, 72.98147161977249
359, 56.07574834985098
360, 33.022748465105906
361, 6.439398802711366
362, -7.602216655409393
363, -0.8296461667041513
364, 17.59178722796878
365, 36.01886867530084
366, 53.30229828540723
367, 71.37053067274519
368, 88.2027894648727
369, 91.26973646311853
370, 79.83178316782232
371, 74.24059211923304
372, 81.34801751534724
373, 85.15334692759097
374, 74.62814596083626
375, 58.27579940250871
376, 48.60089359739413
377, 43.990228534169546
378, 39.39709915223102
379, 35.055064427164325
380, 34.34381246679641
381, 37.48757293409926
382, 39.08171274793949
383, 37.29352333751376
384, 35.421514539806594
385, 35.699084491900976
386, 32.92363692703111
387, 19.74538430006669
388, 1.3308045773101185
389, -7.792968114152245
390, -9.395220354620506
391, -12.912508118389269
392, -19.744963969207674
393, -25.676813152185787
394, -29.76386903626917
395, -30.91298197854485
396, -28.340431780410654
397, -22.131722359928062
398, -12.073392375197727
399, -0.2812961845274913
400, 7.08934782353117
401, 9.592425063459814
402, 3.525514857863527
403, -9.271648162855854
404, -1.8592640635642965
405, 33.08273306832689
406, 82.49603976806429
407, 143.43095492606062
408, 205.77398284898572
409, 267.8602949888809
410, 324.42450943886706
411, 366.07134285212305
412, 399.75562106871894
413, 449.07481388840733
414, 513.2435002464408
415, 575.2040486549813
416, 631.8051765640912
417, 681.4207431892801
418, 723.5192077521124
419, 759.6482673550072
420, 790.7702106880279
421, 817.8082163539975
422, 841.8721289440964
423, 859.5569920424896
424, 863.2940283634243
425, 852.8514909280593
426, 828.4112513499895
427, 791.335271248855
428, 752.2843417185177
429, 713.2179538491318
430, 667.3874886224248
431, 612.2034402061436
432, 554.8589567832651
433, 500.4084579328555
434, 445.4943307890935
435, 385.654259241257
436, 321.8517057044128
437, 256.4265195157677
438, 191.29084584186967
439, 134.0893438454741
440, 86.34627660314163
441, 62.20663818240246
442, 60.032950454777165
443, 71.34916175934995
444, 93.98811970761199
445, 112.97887056580

Note: Raman_Spectroscopy_GAN/input/clinical_sample/s1/s1_3_785M-T_Rlab.txt
##NAMES=
##LOCALITY=
##RRUFFID=
##CHEMISTRY=
320, 16.893958894153002
321, 16.638891922903895
322, 16.978177327970116
323, 22.367232308791245
324, 30.1213123120242
325, 35.52745630263871
326, 37.07094423034778
327, 29.25127237412471
328, 13.148851146665038
329, 4.512591388825967
330, 7.666746968357074
331, 18.463973313008864
332, 33.688336288072605
333, 47.8173734233651
334, 53.862251776829
335, 52.40019920444047
336, 45.08675267114177
337, 33.34260036122487
338, 25.37546334021954
339, 22.307409479287344
340, 18.620452749336437
341, 12.223272382829236
342, 10.053282669497094
343, 16.596375367265864
344, 28.166421576157518
345, 39.801374312145526
346, 50.91077758919437
347, 59.615071992097
348, 64.50635210967084
349, 54.18003840799429
350, 26.421498385716404
351, 4.130038939381848
352, -0.4816983622768021
353, 7.286372370431309
354, 22.734131004992378
355, 40.950743587894976
356, 51.91758313502396
357, 53.912245280234856
358, 40.43984465041558
359, 12.313401284857719
360, -8.24083965452428
361, -15.260702428821787
362, -12.19259875715943
363, -0.4466749049615828
364, 14.561750651808325
365, 23.846786193312255
366, 27.8214670004063
367, 27.789396170923283
368, 24.35555239763471
369, 20.61669773090307
370, 16.915150586060918
371, 10.713372838852592
372, 1.2019664174267746
373, -4.08836024732318
374, -0.580260010560778
375, 8.887259161739166
376, 19.680085130529733
377, 29.12308329499865
378, 29.50931805347136
379, 21.447806532563845
380, 11.625249808803346
381, 1.9905967546010288
382, 5.748627473992201
383, 26.98868103103723
384, 44.39756819462218
385, 43.54427633287287
386, 29.998802894348955
387, 11.629968709034074
388, -8.97493783065056
389, -25.737321635167973
390, -37.299387521975405
391, -30.24451608657637
392, -4.190066741576629
393, 9.535995480362544
394, 1.1344208931077446
395, -7.260491346084564
396, -3.3573611479741885
397, 2.5376693012249234
398, -1.9283424666018618
399, -10.903010663012537
400, -10.483884057588511
401, -2.611604788798104
402, 1.8873048410050615
403, 4.116355500204918
404, 24.122478699710882
405, 68.55569905339871
406, 124.26012706302663
407, 186.1501475098994
408, 246.5750103275268
409, 298.57017903776887
410, 342.881978323976
411, 380.8421125131599
412, 415.64605416766335
413, 457.7688180742316
414, 506.8475080377302
415, 555.2184732049536
416, 600.6602860080802
417, 630.0854306296906
418, 639.2879625710102
419, 646.1048246939044
420, 661.6262286130523
421, 678.8245817280012
422, 689.2513177344763
423, 691.690751912226
424, 683.4813123447029
425, 664.519884145323
426, 634.7831741039709
427, 595.7747833529065
428, 559.4518511493416
429, 527.6223684752222
430, 484.8874380440129
431, 425.2871016445906
432, 358.3747852160768
433, 290.8634080374277
434, 228.2692488605926
435, 177.9235220124683
436, 138.36374125939983
437, 106.03165819077458
438, 79.4512589324695
439, 60.98541663812375
440, 49.13531554838937
441, 50.53555898299692
442, 66.6208564094477
443, 84.11485413751052
444, 99.87647425038358
445, 119.07525558548605
446,

File: s1_1_785M-T_Rlab.csv
a,b
320,25.2983
325,57.2209
330,4.62739
335,76.7312
340,42.3618
345,31.8302
350,36.8937
355,20.2162
360,-0.681193
365,-8.2465
370,31.9551
375,5.03886
380,35.6192
385,43.4505
390,-5.85561
395,2.4037
400,15.0331
405,69.9855
410,180.827
415,301.608
420,334.986
425,322.834
430,255.849
435,122.179
440,50.9735
445,6.06602
450,49.1211
455,35.9116
460,31.1804
465,-2.94899
470,-17.0795
475,2.06552
480,10.1952
485,-4.78234
490,65.3886
495,3.36958
500,-12.8833
505,4.74535
510,155.795
515,241.35
520,309.776
525,198.775
530,161.837
535,69.4899
540,36.4
545,63.8872
550,46.0632
555,50.8384
560,6.80749
565,2.94442
570,-9.78417
575,32.6096
580,-5.92978
585,-4.87492
590,28.1741
595,44.8536
600,-2.30532
605,-25.3785
610,24.224
615,-16.1809
620,7.40842
625,53.0371
630,191.239
635,262.66
640,368.839
645,351.45
650,262.467
655,161.272
660,18.6831
665,38.0125
670,-9.06558
675,-12.8396
680,29.0854
685,59.538
690,-4.43806
695,-5.451
700,24.564
705,16.4438
710,128.967
715,267.119
720,381.41
725,406.086
730,281.952
735,145.174
740,31.1774
745,15.1339
750,-23.443
755,49.764
760,42.5214
765,11.4455
770,11.2216
775,1.56858
780,22.1967
785,17.9111
790,-4.27364
795,37.8321
800,70.5281
805,12.7615
810,21.6342
815,29.654
820,30.749
825,35.448
830,-1.86844
835,8.24977
840,38.6043
845,24.7797
850,32.6151
855,62.5773
860,84.8558
865,109.211
870,77.2561
875,46.3772
880,46.9984
885,67.1714
890,-1.64265
895,23.3472
900,24.2183
905,23.3517
910,-0.916432
915,12.8939
920,23.0955
925,115.627
930,110.386
935,104.435
940,66.0262
945,93.1398
950,15.1036
955,54.9838
960,7.4191
965,-6.35227
970,-7.83752
975,20.5852
980,20.9856
985,6.39177
990,-21.9155
995,20.0134
1000,48.1536
1005,58.0712
1010,14.5196
1015,48.6582
1020,56.3396
1025,66.3342
1030,75.1725
1035,21.876
1040,10.0988
1045,-1.63064
1050,-3.99494
1055,9.58505
1060,48.0726
1065,0.335217
1070,251.697
1075,537.403
1080,542.753
1085,288.84
1090,40.7812
1095,-15.0812
1100,3.64789
1105,-8.0633
1110,27.4959
1115,46.2362
1120,15.4853
1125,10.9276
1130,74.9285
1135,70.1352
1140,126.026
1145,71.8405
1150,21.5774
1155,27.5757
1160,-4.69034
1165,-14.2584
1170,11.3346
1175,32.124
1180,53.4482
1185,66.5663
1190,26.1016
1195,-16.2765
1200,-3.92045
1205,51.8454
1210,55.9425
1215,32.3452
1220,42.8586
1225,10.9717
1230,-2.05735
1235,54.964
1240,111.784
1245,158.95
1250,172.696
1255,180.196
1260,181.101
1265,151.847
1270,129.638
1275,54.5281
1280,66.0221
1285,26.9637
1290,53.3981
1295,58.6289
1300,78.739
1305,68.6459
1310,39.7781
1315,18.1388
1320,13.9795
1325,39.217
1330,-11.0834
1335,6.91351
1340,9.11346
1345,12.2169
1350,31.0872
1355,43.6587
1360,21.4327
1365,50.1364
1370,16.0487
1375,-3.98456
1380,19.3943
1385,47.9774
1390,22.4964
1395,26.7308
1400,4.24322
1405,15.4443
1410,-0.2519
1415,39.0461
1420,-3.34033
1425,26.5402
1430,6.7597
1435,102.577
1440,112.281
1445,104.479
1450,92.0053
1455,35.7208
1460,61.8025
1465,122.727
1470,163.565
1475,92.8487
1480,40.7564
1485,2.62346
1490,-32.1557
1495,0.691008
1500,-11.1391
1505,21.442
1510,4.33165
1515,31.8885
1520,-10.1663
1525,-8.26711
1530,2.93189
1535,14.5594
1540,18.9094
1545,-13.3267
1550,42.0961
1555,23.9462
1560,-17.0511
1565,15.6756
1570,114.633
1575,239.013
1580,403.516
1585,182.053
1590,35.4384
1595,-4.83802
1600,16.5239
1605,19.9605
1610,-23.3131
1615,18.2335
1620,49.2681
1625,12.0609
1630,36.4049
1635,-5.28444
1640,24.3267
1645,11.5232
1650,-11.5734

File: s1_1_785M-T_Rlab.txt
a,b
320, 25.2983
325, 57.2209
330, 4.62739
335, 76.7312
340, 42.3618
345, 31.8302
350, 36.8937
355, 20.2162
360, -0.681193
365, -8.2465
370, 31.9551
375, 5.03886
380, 35.6192
385, 43.4505
390, -5.85561
395, 2.4037
400, 15.0331
405, 69.9855
410, 180.827
415, 301.608
420, 334.986
425, 322.834
430, 255.849
435, 122.179
440, 50.9735
445, 6.06602
450, 49.1211
455, 35.9116
460, 31.1804
465, -2.94899
470, -17.0795
475, 2.06552
480, 10.1952
485, -4.78234
490, 65.3886
495, 3.36958
500, -12.8833
505, 4.74535
510, 155.795
515, 241.35
520, 309.776
525, 198.775
530, 161.837
535, 69.4899
540, 36.4
545, 63.8872
550, 46.0632
555, 50.8384
560, 6.80749
565, 2.94442
570, -9.78417
575, 32.6096
580, -5.92978
585, -4.87492
590, 28.1741
595, 44.8536
600, -2.30532
605, -25.3785
610, 24.224
615, -16.1809
620, 7.40842
625, 53.0371
630, 191.239
635, 262.66
640, 368.839
645, 351.45
650, 262.467
655, 161.272
660, 18.6831
665, 38.0125
670, -9.06558
675, -12.8396
680, 29.0854
685, 59.538
690, -4.43806
695, -5.451
700, 24.564
705, 16.4438
710, 128.967
715, 267.119
720, 381.41
725, 406.086
730, 281.952
735, 145.174
740, 31.1774
745, 15.1339
750, -23.443
755, 49.764
760, 42.5214
765, 11.4455
770, 11.2216
775, 1.56858
780, 22.1967
785, 17.9111
790, -4.27364
795, 37.8321
800, 70.5281
805, 12.7615
810, 21.6342
815, 29.654
820, 30.749
825, 35.448
830, -1.86844
835, 8.24977
840, 38.6043
845, 24.7797
850, 32.6151
855, 62.5773
860, 84.8558
865, 109.211
870, 77.2561
875, 46.3772
880, 46.9984
885, 67.1714
890, -1.64265
895, 23.3472
900, 24.2183
905, 23.3517
910, -0.916432
915, 12.8939
920, 23.0955
925, 115.627
930, 110.386
935, 104.435
940, 66.0262
945, 93.1398
950, 15.1036
955, 54.9838
960, 7.4191
965, -6.35227
970, -7.83752
975, 20.5852
980, 20.9856
985, 6.39177
990, -21.9155
995, 20.0134
1000, 48.1536
1005, 58.0712
1010, 14.5196
1015, 48.6582
1020, 56.3396
1025, 66.3342
1030, 75.1725
1035, 21.876
1040, 10.0988
1045, -1.63064
1050, -3.99494
1055, 9.58505
1060, 48.0726
1065, 0.335217
1070, 251.697
1075, 537.403
1080, 542.753
1085, 288.84
1090, 40.7812
1095, -15.0812
1100, 3.64789
1105, -8.0633
1110, 27.4959
1115, 46.2362
1120, 15.4853
1125, 10.9276
1130, 74.9285
1135, 70.1352
1140, 126.026
1145, 71.8405
1150, 21.5774
1155, 27.5757
1160, -4.69034
1165, -14.2584
1170, 11.3346
1175, 32.124
1180, 53.4482
1185, 66.5663
1190, 26.1016
1195, -16.2765
1200, -3.92045
1205, 51.8454
1210, 55.9425
1215, 32.3452
1220, 42.8586
1225, 10.9717
1230, -2.05735
1235, 54.964
1240, 111.784
1245, 158.95
1250, 172.696
1255, 180.196
1260, 181.101
1265, 151.847
1270, 129.638
1275, 54.5281
1280, 66.0221
1285, 26.9637
1290, 53.3981
1295, 58.6289
1300, 78.739
1305, 68.6459
1310, 39.7781
1315, 18.1388
1320, 13.9795
1325, 39.217
1330, -11.0834
1335, 6.91351
1340, 9.11346
1345, 12.2169
1350, 31.0872
1355, 43.6587
1360, 21.4327
1365, 50.1364
1370, 16.0487
1375, -3.98456
1380, 19.3943
1385, 47.9774
1390, 22.4964
1395, 26.7308
1400, 4.24322
1405, 15.4443
1410, -0.2519
1415, 39.0461
1420, -3.34033
1425, 26.5402
1430, 6.7597
1435, 102.577
1440, 112.281
1445, 104.479
1450, 92.0053
1455, 35.7208
1460, 61.8025
1465, 122.727
1470, 163.565
1475, 92.8487
1480, 40.7564
1485, 2.62346
1490, -32.1557
1495, 0.691008
1500, -11.1391
1505, 21.442
1510, 4.33165
1515, 31.8885
1520, -10.1663
1525, -8.26711
1530, 2.93189
1535, 14.5594
1540, 18.9094
1545, -13.3267
1550, 42.0961
1555, 23.9462
1560, -17.0511
1565, 15.6756
1570, 114.633
1575, 239.013
1580, 403.516
1585, 182.053
1590, 35.4384
1595, -4.83802
1600, 16.5239
1605, 19.9605
1610, -23.3131
1615, 18.2335
1620, 49.2681
1625, 12.0609
1630, 36.4049
1635, -5.28444
1640, 24.3267
1645, 11.5232
1650, -11.5734