Folder: ml/Raman_Spectroscopy_GAN/input/clinical_sample/s10

Note: Raman_Spectroscopy_GAN/input/clinical_sample/s10/s10_2_785M-T_Rlab.txt
##NAMES=
##LOCALITY=
##RRUFFID=
##CHEMISTRY=
320, -11.886234976744163
321, -12.665922140233306
322, -11.410453050946671
323, 4.1689632395828085
324, 29.62782915437674
325, 54.00514677211504
326, 74.49429006774699
327, 81.03319692374316
328, 72.7069689605396
329, 50.314268794372765
330, 14.518088894312314
331, -11.317815065829564
332, -17.759238467921023
333, -11.34490161105532
334, 1.1130011699387978
335, 17.04769917916201
336, 27.607774971469553
337, 35.26094023179576
338, 53.26028597316326
339, 79.93748197703098
340, 109.79539766978814
341, 140.700536938406
342, 156.7824333408298
343, 144.9825310302549
344, 111.28007420319955
345, 66.74606491488157
346, 19.947486122880946
347, 5.441064493950762
348, 22.262661385433603
349, 45.843689164898024
350, 67.24076100632192
351, 76.0160714605463
352, 66.79153942909579
353, 44.26455068809082
354, 13.753498889343973
355, -12.110378135343126
356, -8.934346580743295
357, 16.522009729011188
358, 23.43403445865806
359, 8.056464765866622
360, -2.238229606691675
361, -0.490390589042363
362, 0.33917791414387466
363, -7.9195691808417905
364, -11.19844355078203
365, 10.565127294754348
366, 42.79956668194791
367, 37.32378599329422
368, 0.4743640435008274
369, -14.124537207047979
370, -0.41945810698962305
371, 23.990904933229103
372, 54.96736805554792
373, 81.6829139309757
374, 98.32943743579744
375, 97.96542104677064
376, 70.38307017348234
377, 27.878186062294844
378, 9.490340636488327
379, 12.978687490589436
380, 22.12453207321414
381, 31.99286328542803
382, 29.13834396923812
383, 9.12672803791429
384, -5.165597367549708
385, -0.29770247171109077
386, 12.218076224411561
387, 15.459175575375411
388, 9.657976971204334
389, -4.209425561170065
390, -24.454397808107387
391, -41.79821063106465
392, -55.194536162396616
393, -51.895974181808924
394, -27.639414004606806
395, -8.923526435199165
396, -11.131699755880618
397, -23.81821470196519
398, -35.35014423444409
399, -45.86081921679761
400, -54.07515837129722
401, -58.24985150854809
402, -47.70953207272214
403, -22.860643769059607
404, -8.333364592437647
405, -8.910113132322294
406, -6.699072023113331
407, 7.020013107579871
408, 24.40718148182168
409, 38.815335946173946
410, 58.39744307476576
411, 97.08815347401469
412, 155.61484044230565
413, 228.64631026880852
414, 300.6050507978289
415, 377.1298032162176
416, 457.63587702691984
417, 517.7142858269908
418, 549.3172636668769
419, 570.5097908802545
420, 592.5238625610637
421, 617.4407775033815
422, 647.7626714826492
423, 676.4707836175367
424, 687.96232979468
425, 679.2291899972188
426, 640.4351377334806
427, 574.4691429578615
428, 512.5054014925681
429, 461.0124643303534
430, 415.09331792651574
431, 372.78382673617125
432, 327.9148205896199
433, 276.15139998262384
434, 215.95396502547374
435, 145.27636517419887
436, 87.00480561956647
437, 55.18922518176623
438, 42.31249124957685
439, 25.2355157607617
440, 1.5655001377999724
441, -16.794542843792442
442, -28.427110730593995
443, -31.88439316565382
444, -26.36734603447257

Note: Raman_Spectroscopy_GAN/input/clinical_sample/s10/s10_3_785M-T_Rlab.txt
##NAMES=
##LOCALITY=
##RRUFFID=
##CHEMISTRY=
320, -51.37976984499437
321, -28.910674192482475
322, -8.856608764981502
323, -2.438871038839352
324, -2.6611857446732756
325, 1.6092873329962458
326, 7.535650081385029
327, 2.3300675864866207
328, -13.521806272716276
329, -19.008269837757325
330, -9.283740915338058
331, 2.5454461401295703
332, 9.936798618969988
333, 18.16491135430806
334, 33.792348407108875
335, 49.78524272221148
336, 44.00064051551453
337, 19.157681867985957
338, 1.699517436836686
339, -5.038784802074588
340, 0.2689835527398827
341, 18.869742349912485
342, 32.52211811802772
343, 26.05145025812635
344, 9.112321698330561
345, -0.9149326682181709
346, -4.812587558237283
347, -3.762716962273771
348, 2.2431279975062353
349, 13.652108707316074
350, 31.072327204821704
351, 36.88619488199947
352, 21.70005580398538
353, -0.5355756826884317
354, -14.530071338525886
355, -20.600380469928496
356, -16.796804002027784
357, -5.956903570140639
358, -3.821578623023015
359, -11.395128178408413
360, -14.930147512412077
361, -10.456182681971768
362, -7.674501552772199
363, -12.683230994512996
364, -18.140047352469992
365, -13.853392967694163
366, -4.073792189832602
367, -1.071088952036007
368, -4.352148146812397
369, -8.5051977044659
370, -12.32528718407957
371, -5.494708374833863
372, 16.165546285628807
373, 33.58818823540241
374, 33.8804951465936
375, 24.657048842882432
376, 16.150083789609198
377, 7.52060362208249
378, -2.350454696901579
379, -12.01860776587273
380, -7.651037983647257
381, 11.744156720877072
382, 17.72110133528986
383, 0.616245981240354
384, -18.06890842341818
385, -24.48620225538616
386, -25.205508317581916
387, -28.673536353011514
388, -33.51851482982602
389, -35.31980612138614
390, -34.7086273993591
391, -35.67194314306653
392, -38.16031177973491
393, -32.32002870255383
394, -14.674152460349433
395, 0.6867053531059355
396, 5.842414174512669
397, 1.4703541516046243
398, -12.670910330813058
399, -32.586474013824045
400, -47.61343798424605
401, -56.76382433733306
402, -52.13197398739612
403, -34.14984394521525
404, -19.942896522228693
405, -12.762577341014548
406, -9.302264079104134
407, -7.98969082982876
408, -8.916980058576883
409, -12.380205024985116
410, -15.757923389865027
411, -14.092376288914238
412, -8.559420706680612
413, -3.386822034663055
414, 2.5214074163632176
415, 15.91321032432279
416, 38.24721721795504
417, 56.728746009646784
418, 68.10283860345953
419, 73.54881429488705
420, 73.63732843510115
421, 72.11828862869879
422, 73.33728570883068
423, 75.62111765864938
424, 75.18986913502522
425, 70.5101034258114
426, 55.69139161933526
427, 31.377937267334346
428, 16.55925254655449
429, 13.904216174756584
430, 13.876321990848737
431, 12.853572980466197
432, 12.340110664183157
433, 13.41337170305087
434, 9.988531987208262
435, -6.506349739922371
436, -28.617870118117935
437, -36.844199330505944
438, -35.23291978062298
439, -41.135461028105055
440, -54.75361778484876
441, -58.41153190183468
442, -49.01726813037567
443, -39.7794

File: s10_1_785M-T_Rlab.csv
a,b
320, -36.0497
325, 17.6567
330, -10.2094
335, 115.66
340, 96.1019
345, 23.5806
350, 12.8321
355, 3.8302
360, 20.917
365, 4.85854
370, 44.1956
375, 105.565
380, 23.0147
385, -18.3861
390, -20.5008
395, -32.9581
400, -5.48003
405, -22.2302
410, 160.041
415, 492.638
420, 709.214
425, 677.371
430, 457.285
435, 98.226
440, -27.0632
445, 68.5318
450, 264.389
455, 264.748
460, 121.257
465, -27.9416
470, -7.07557
475, -10.0185
480, -16.3431
485, 58.514
490, 141.021
495, -13.9432
500, -37.9257
505, -11.6925
510, 10.6357
515, 183.276
520, 181.858
525, 62.1716
530, 116.914
535, 118.784
540, 88.5735
545, 216.105
550, 242.087
555, 102.408
560, 14.8139
565, -11.067
570, -18.5967
575, 2.16507
580, -28.1095
585, 49.5683
590, -31.0845
595, 65.5608
600, 2.70619
605, -17.1126
610, -10.3842
615, -18.6447
620, 67.5638
625, 19.1236
630, 3.28621
635, 3.31699
640, 15.9857
645, 41.9315
650, 49.65
655, -7.72871
660, 14.2191
665, 84.9777
670, 55.1897
675, 11.5999
680, -6.82306
685, 58.7569
690, 52.1005
695, 63.2162
700, -16.7381
705, 43.658
710, 18.926
715, -1.11754
720, 49.5521
725, -10.5342
730, 26.8151
735, -7.59357
740, 15.4417
745, 2.5286
750, 37.598
755, 54.6699
760, -30.7021
765, 7.05625
770, 102.796
775, 3.79131
780, 28.1585
785, 40.6005
790, 70.292
795, 0.891513
800, 5.28327
805, 71.3692
810, 19.1755
815, -14.2523
820, 36.5139
825, 14.358
830, 8.0294
835, -10.6101
840, 50.1177
845, 7.46506
850, 38.2771
855, -32.9393
860, 40.9137
865, 15.7671
870, 1.14396
875, 26.2691
880, -7.87587
885, 40.235
890, 10.9218
895, 8.62037
900, -8.3024
905, 39.5865
910, 1.74258
915, 45.8752
920, -0.810467
925, 59.7941
930, 84.2296
935, -14.2608
940, 65.1585
945, -0.0822884
950, 30.7757
955, 10.9731
960, 53.3398
965, -20.363
970, 34.027
975, -11.7756
980, 10.2889
985, 66.3503
990, 22.0524
995, 29.2611
1000, -0.723612
1005, 7.39973
1010, 12.4822
1015, 8.89888
1020, 42.6286
1025, 6.08125
1030, 10.8575
1035, -0.321492
1040, 73.0843
1045, -8.83431
1050, -50.8651
1055, 23.4464
1060, -16.2414
1065, 90.5242
1070, 243.373
1075, 353.027
1080, 263.736
1085, 77.5946
1090, 48.7808
1095, -6.72784
1100, -19.9729
1105, -12.3809
1110, 67.1089
1115, -28.15
1120, 36.4486
1125, 65.1705
1130, 18.5417
1135, 9.45997
1140, 41.7549
1145, 14.425
1150, 49.7699
1155, -25.7496
1160, 59.7459
1165, 24.1639
1170, -18.7226
1175, 7.81413
1180, 63.5286
1185, 28.5678
1190, -18.1306
1195, 39.8884
1200, 9.01448
1205, 82.7575
1210, 82.4112
1215, 15.1154
1220, 4.57705
1225, 35.3749
1230, -35.9841
1235, 12.6297
1240, 13.0718
1245, 70.3574
1250, 172.729
1255, 237.421
1260, 133.731
1265, 86.2983
1270, 71.3903
1275, 1.38565
1280, -7.12161
1285, 15.7222
1290, 29.2126
1295, -16.1596
1300, -18.5275
1305, -10.8093
1310, 15.5731
1315, -16.024
1320, 20.0814
1325, 48.9363
1330, 14.1967
1335, 18.8134
1340, -2.65898
1345, 0.0490283
1350, 9.42692
1355, 6.77122
1360, 36.8804
1365, 21.0043
1370, 21.9098
1375, -8.16504
1380, 28.2211
1385, 1.64531
1390, 8.3561
1395, 57.8364
1400, 21.7952
1405, -7.85296
1410, -1.55657
1415, 14.2033
1420, -13.3695
1425, 34.0955
1430, 20.6666
1435, -7.52229
1440, 28.8672
1445, -5.72407
1450, 38.7119
1455, 26.6428
1460, 31.15
1465, 15.6212
1470, 23.0577
1475, 42.9502
1480, 4.5449
1485, 13.903
1490, 32.3377
1495, 5.35808
1500, 23.3932
1505, 49.8891
1510, -5.12217
1515, 8.39409
1520, 29.3278
1525, 4.87857
1530, 46.1222
1535, -0.0556299
1540, 0.480173
1545, -3.81458
1550, 14.5456
1555, -10.8774
1560, 2.5026
1565, -2.27388
1570, 67.8408
1575, 269.266
1580, 340.149
1585, 163.667
1590, -11.379
1595, -12.2249
1600, -7.82933
1605, 21.9749
1610, 11.3545
1615, 20.9607
1620, 4.33688
1625, -11.7357
1630, -9.7442
1635, 33.0184
1640, 14.7105
1645, 2.80049
1650, -8.42764