Folder: ml/Raman_Spectroscopy_GAN/input/clinical_sample/s2

Note: Raman_Spectroscopy_GAN/input/clinical_sample/s2/s2_1_785M-T_Rlab.txt
##NAMES=
##LOCALITY=
##RRUFFID=
##CHEMISTRY=
320, 2.364375453478715
321, 10.835903238776154
322, 22.48639335749249
323, 50.26514178760954
324, 84.1944813544842
325, 110.71510483554539
326, 130.47976838811428
327, 146.9766332108029
328, 161.17207969343963
329, 179.07885025881023
330, 202.15555259870234
331, 227.76006447284544
332, 254.4425819345115
333, 274.5776211688526
334, 278.51491605417687
335, 270.709238182445
336, 263.5258539368142
337, 256.80472472750625
338, 245.12734331118554
339, 227.68962916166493
340, 206.92851201565645
341, 183.7745667920808
342, 158.70804625223718
343, 132.1241125375127
344, 109.1708026962333
345, 99.3800787739574
346, 98.18383755346986
347, 86.88335969736727
348, 64.60927913246906
349, 40.93606754985649
350, 18.372694459872946
351, 4.943048351951802
352, 2.4844133105052606
353, 5.48958684833724
354, 8.304447672871902
355, 11.211849386711947
356, 14.519493829142448
357, 17.11522676383902
358, 19.044027966806425
359, 20.778998208958
360, 28.36964818317938
361, 43.539439784000024
362, 55.81734574694656
363, 58.62453398978232
364, 53.26240916178085
365, 41.512578157824464
366, 26.090426666629355
367, 14.550759205118993
368, 6.937679226517503
369, 0.882153016720622
370, -3.9761492974093926
371, -9.101660268561318
372, -15.312391625175223
373, -19.305418467970412
374, -18.776418459287925
375, -13.322550954386315
376, -1.878914515624274
377, 11.818398211328713
378, 13.642360335224112
379, 4.866847537032299
380, -1.2255655609342284
381, -2.7062752264773735
382, -2.5441847531164967
383, -1.6702417456044714
384, 2.7444253258890967
385, 12.997752976372794
386, 25.163522709211975
387, 34.08294135500546
388, 38.08401652842895
389, 32.657699157629395
390, 19.499378649803475
391, 9.383754081231928
392, 3.4814485269362194
393, -4.125302563583318
394, -15.976022260584614
395, -22.30699978164739
396, -17.226435561370636
397, -5.5679466556566695
398, 7.378042967214242
399, 26.21053702743029
400, 60.55978622642397
401, 103.51655993544136
402, 134.49486836235246
403, 151.86586463844105
404, 163.88065705827194
405, 172.71822416784107
406, 181.65450759996384
407, 192.2413804966618
408, 204.2605843555075
409, 217.5134367873752
410, 230.65028697343314
411, 241.26288569521876
412, 252.6907335959586
413, 276.12794998703157
414, 309.6542287243392
415, 335.21454353697754
416, 349.9516473603535
417, 359.48063718991307
418, 365.69787032390104
419, 367.8127269974466
420, 365.33363527654546
421, 361.4327899902746
422, 359.9238012704691
423, 356.1847668540977
424, 339.93117024384355
425, 314.37213089228317
426, 293.9756713886409
427, 280.34783911742124
428, 274.1229757605088
429, 274.7211818891128
430, 267.7499503907384
431, 247.61212373332
432, 219.662462395916
433, 187.66360347679438
434, 150.52259499934644
435, 106.78688796273491
436, 63.47234722534267
437, 37.25699767566675
438, 28.198289897664836
439, 16.909936638325235
440, 2.287452969720107
441, -0.19428790336769453
442, 12.09033678754895
443, 23.807441270549134
444, 27.374714463680903
445, 

Note: Raman_Spectroscopy_GAN/input/clinical_sample/s2/s2_3_785M-T_Rlab.txt
##NAMES=
##LOCALITY=
##RRUFFID=
##CHEMISTRY=
320, 25.212446637146968
321, 25.972299730808118
322, 19.286975679500756
323, 13.671787725843387
324, 15.166233761849071
325, 32.119641590037645
326, 59.98451780974301
327, 86.49800228513595
328, 109.92340021450218
329, 125.21115724984156
330, 131.19813181424524
331, 133.0354940521038
332, 133.54983036877547
333, 133.32521875318525
334, 133.10082647207037
335, 133.9469409228559
336, 138.80599280603747
337, 145.99292253306703
338, 144.01614536861143
339, 131.53865615764607
340, 120.74226513487702
341, 116.26068767517336
342, 112.71160638680249
343, 105.66633654888847
344, 97.54217435213377
345, 92.81491811079559
346, 88.82135947706684
347, 74.7539395063186
348, 50.80555170916705
349, 29.022430859916312
350, 12.46793495165548
351, 6.516078390268376
352, 12.697622825246981
353, 27.768534416165494
354, 46.08762805153037
355, 62.814568264236186
356, 66.34873671257083
357, 56.98502736702994
358, 38.77140984370453
359, 13.208496272810407
360, -7.545182749875494
361, -20.473662228244393
362, -23.770381326714414
363, -15.814395655746011
364, -3.0716164061514064
365, 5.785780510647783
366, 11.34073782714222
367, 14.52701274599167
368, 15.636349185177096
369, 16.05599579515183
370, 16.214792129424495
371, 19.28070399140961
372, 26.276156206423366
373, 29.388992218095154
374, 23.23471077681188
375, 12.710395670002072
376, 5.017415363084183
377, -0.3468290975843047
378, -5.075427792222399
379, -9.083879395523581
380, -8.751659110625042
381, -3.4550966720498764
382, 5.994851103485416
383, 19.46276693533582
384, 34.87484821195085
385, 50.82693756585195
386, 59.178384070533866
387, 48.428765298231156
388, 22.860499068312492
389, -5.488839081340302
390, -32.587461092337435
391, -39.78025233557946
392, -25.711352950525907
393, -4.4676940154004114
394, 21.031985998893106
395, 36.182504482774675
396, 32.00563120551578
397, 17.251853445640336
398, 4.234232965904994
399, -3.6125980011202046
400, 3.9441826958827733
401, 26.707844190867036
402, 60.62948140973003
403, 107.78260425555254
404, 156.76781972625395
405, 206.4534357878374
406, 263.213859091994
407, 330.06444853062294
408, 398.67505987601453
409, 461.46269893310546
410, 516.0203054102449
411, 558.052841668582
412, 590.0232710927376
413, 620.3512389894195
414, 647.253470785854
415, 654.9681508188678
416, 641.1893797113325
417, 613.7094703960138
418, 575.3073101671389
419, 535.8878619421394
420, 501.6095877198313
421, 472.6596885299832
422, 449.26321730353993
423, 426.6131131702605
424, 394.03008231792865
425, 354.0410225175783
426, 318.41917075821857
427, 288.30815215002167
428, 262.9277942764238
429, 241.62204396360266
430, 214.58672610321992
431, 177.99809620267024
432, 134.03704824613123
433, 84.2360340854284
434, 39.7228091955958
435, 19.281715257733595
436, 15.567186093214332
437, 15.461981173674758
438, 17.182933599392527
439, 15.730315474725103
440, 9.051886624592953
441, 0.03919353709443385
442, -11.331247651513877
443, -17.453696750721974
444, -15.587356956425

File: s2_2_785M-T_Rlab.csv
a,b
320, 0.343438
325, 73.8427
330, 223.106
335, 237.696
340, 190.843
345, 123.146
350, 109.983
355, 78.0004
360, -18.795
365, 33.1915
370, 17.2887
375, -0.865748
380, 24.2082
385, 1.54404
390, 20.7766
395, -3.22132
400, 66.8989
405, 178.523
410, 329.992
415, 381.784
420, 419.177
425, 350.752
430, 259.522
435, 106.555
440, 16.1136
445, 45.1551
450, 19.8563
455, 37.9488
460, 21.6788
465, -10.431
470, -5.28336
475, 25.3877
480, 0.788667
485, -1.19931
490, 0.111517
495, -1.13604
500, 15.937
505, 188.332
510, 387.798
515, 615.102
520, 676.814
525, 533.477
530, 256.963
535, 29.8692
540, 50.0663
545, 6.92096
550, 28.3326
555, 32.361
560, 39.2124
565, -13.0298
570, -2.2829
575, -2.76256
580, 6.40816
585, 3.11345
590, 40.9843
595, 15.7133
600, -12.6288
605, 7.49321
610, 27.2236
615, -8.49239
620, 8.31732
625, 43.1797
630, 52.1945
635, 26.2335
640, 20.1369
645, 41.6091
650, 4.65884
655, 20.137
660, 20.8676
665, -10.0485
670, 9.51073
675, 17.4455
680, 39.3857
685, 53.2392
690, 80.8261
695, 8.27518
700, 20.8021
705, 3.81214
710, 11.3163
715, 91.8871
720, 121.622
725, 96.5622
730, 6.94325
735, 19.5263
740, -3.05215
745, 20.6622
750, 11.5462
755, 26.5713
760, -2.12943
765, 61.0056
770, 38.2492
775, 54.4635
780, 55.1275
785, 7.22679
790, 37.7318
795, 15.8383
800, 18.0654
805, 37.6555
810, 24.5401
815, 19.8204
820, -1.01106
825, 7.03526
830, 22.6492
835, 47.7199
840, 59.0172
845, 104.88
850, 83.2925
855, -1.69999
860, 39.6888
865, 2.73744
870, 35.7687
875, 7.34887
880, 25.1808
885, -1.22901
890, 28.3424
895, 29.5505
900, -5.0649
905, 23.3326
910, 43.2463
915, 8.28951
920, 17.6717
925, 47.3927
930, 27.5453
935, 29.7377
940, -3.07333
945, 57.7468
950, 20.5629
955, 15.0553
960, 59.0447
965, -7.29706
970, 65.6922
975, -11.8959
980, 50.8408
985, 10.6796
990, -5.66519
995, 27.4074
1000, 166.001
1005, 91.2386
1010, 4.89134
1015, 69.8543
1020, 103.522
1025, 119.6
1030, 77.4952
1035, -9.61202
1040, 5.97364
1045, -3.51661
1050, -22.8871
1055, -15.7473
1060, -29.2676
1065, 127.173
1070, 912.219
1075, 1965.42
1080, 2250.06
1085, 1451.21
1090, 361.885
1095, -33.3557
1100, -33.2124
1105, -4.9898
1110, 9.17676
1115, -2.4815
1120, -6.15952
1125, 16.0086
1130, 36.4201
1135, 125.806
1140, 119.133
1145, 88.9959
1150, 11.3382
1155, -2.94243
1160, 42.5335
1165, -14.5711
1170, 28.3651
1175, 91.9054
1180, 204.522
1185, 199.544
1190, 89.3924
1195, 46.8033
1200, -3.84125
1205, 28.1133
1210, 32.1346
1215, 2.29036
1220, -4.88824
1225, 7.97034
1230, 7.24373
1235, 24.1326
1240, 2.78312
1245, 115.88
1250, 245.551
1255, 357.421
1260, 405.659
1265, 467.98
1270, 427.781
1275, 328.79
1280, 274.56
1285, 164.444
1290, 49.4272
1295, 11.6783
1300, 15.5928
1305, -12.3114
1310, 37.7595
1315, 11.4709
1320, 14.859
1325, 47.4208
1330, 5.39295
1335, 36.0181
1340, 15.6827
1345, 23.9088
1350, -11.174
1355, 52.163
1360, -12.5313
1365, 31.9347
1370, 5.76578
1375, 20.2801
1380, 27.3508
1385, 22.8304
1390, 43.2718
1395, 30.4019
1400, 136.213
1405, 172.412
1410, 194.222
1415, 102.187
1420, 24.812
1425, 12.7882
1430, -16.8101
1435, -6.17059
1440, 5.36188
1445, 15.9139
1450, 20.0956
1455, 21.3632
1460, 17.1723
1465, 14.4536
1470, 56.1653
1475, 74.8915
1480, 109.041
1485, 58.2382
1490, 24.8923
1495, -7.62563
1500, 27.9443
1505, 19.0801
1510, 16.3443
1515, 10.0306
1520, 12.1683
1525, -2.10623
1530, 41.1213
1535, 14.7784
1540, -20.1066
1545, -8.48611
1550, 5.4099
1555, -6.39347
1560, -41.3032
1565, 12.3249
1570, 265.119
1575, 1039.65
1580, 1769.04
1585, 1402.55
1590, 405.45
1595, -0.389307
1600, -13.847
1605, -27.2378
1610, 7.86251
1615, 15.9839
1620, 12.8122
1625, -3.88151
1630, 9.21545
1635, 15.4233
1640, 2.21165
1645, 34.1902
1650, -7.55257