Folder: ml/Raman_Spectroscopy_GAN/input/clinical_sample/s5

Note: Raman_Spectroscopy_GAN/input/clinical_sample/s5/s5_2_785M-T_Rlab.txt
##NAMES=
##LOCALITY=
##RRUFFID=
##CHEMISTRY=
320, -60.66593418342018
321, -34.935423441565945
322, -16.494942881541647
323, -6.747846298476361
324, -0.22496958369447384
325, 11.613135956955375
326, 27.408730512728653
327, 35.636375045069144
328, 36.08343140756915
329, 36.64164321073622
330, 43.133690766069776
331, 64.27345682755185
332, 106.59778650660155
333, 149.9137996069694
334, 176.80101763156563
335, 188.1068926085245
336, 186.32849644226008
337, 171.246378581498
338, 140.60712332700132
339, 95.99909374399795
340, 84.65919287755605
341, 119.7273876462823
342, 156.5482549348526
343, 165.35518612448504
344, 159.10384965961566
345, 161.78260046618743
346, 170.57162718196923
347, 172.3578907256706
348, 167.75326663161104
349, 174.91221381429932
350, 197.47025844881864
351, 203.28182488512903
352, 175.7838996004284
353, 133.6108089543959
354, 97.86039071054256
355, 69.46942019110429
356, 57.58639435094483
357, 59.14243277202695
358, 58.391996776097585
359, 53.69297090938926
360, 41.74005728402517
361, 21.62548161298764
362, 3.877751671063379
363, -8.0222952581571
364, -11.047386455260494
365, 0.2751622796004085
366, 18.14220535964523
367, 17.467728632434955
368, -0.25402552328887396
369, -17.563505933230772
370, -32.37486393686777
371, -31.01865585716041
372, -8.335669185931692
373, 16.434440900226036
374, 29.29706247953436
375, 29.859961885749726
376, 17.546342952440682
377, -3.523159941571066
378, -21.62662554639246
379, -36.10894677568831
380, -38.20517198549169
381, -27.72390209599689
382, -24.29995358351698
383, -34.53740071530228
384, -39.41096382753858
385, -25.83273077465492
386, -2.670054346566758
387, 17.944693290926807
388, 32.50565352361264
389, 30.893236265046653
390, 14.218363099598719
391, -8.174541810143637
392, -34.08884002529885
393, -45.099023740369375
394, -36.04263570755029
395, -23.228815205695355
396, -15.641026302246246
397, -11.235616576135726
398, -8.019219459225496
399, -6.015548095532722
400, -5.841167927388597
401, -6.280130369232211
402, -1.854211461442901
403, 7.493638505093259
404, 12.5366430165177
405, 11.54479777623601
406, 14.33796393486773
407, 25.89513606561195
408, 47.719107005543265
409, 77.53441773371014
410, 102.71345714453673
411, 100.72414942116484
412, 82.19862478595678
413, 91.96316706077232
414, 130.86421505101862
415, 170.23006801829615
416, 206.19673508585583
417, 232.81659706764185
418, 248.00828780745906
419, 247.17597344443493
420, 227.46217047045138
421, 207.20514704918423
422, 208.4511547627353
423, 222.46030387056817
424, 229.7165304284208
425, 224.89213073755855
426, 189.36794295442633
427, 126.4836332316554
428, 78.3471504721183
429, 61.310837584933324
430, 62.4694312710817
431, 77.49511862642976
432, 93.0112053224857
433, 104.01050385975941
434, 97.91934380736166
435, 58.02713511907132
436, 2.144959900477261
437, -27.020635821774704
438, -31.963295016390475
439, -19.000573001532757
440, 8.806197223369963
441, 24.10794951188109
442, 20.012969816591067
443, 8.307368259665964
444, -5.49168495

Note: Raman_Spectroscopy_GAN/input/clinical_sample/s5/s5_3_785M-T_Rlab.txt
##NAMES=
##LOCALITY=
##RRUFFID=
##CHEMISTRY=
320, -70.0213865789483
321, -33.44647168094889
322, -5.412352058925535
323, 8.488842289922104
324, 15.132739380014755
325, 24.811109562671845
326, 40.227642675412426
327, 68.9219201028991
328, 112.47439593304807
329, 145.76287605927064
330, 164.44925143252476
331, 180.5205840238159
332, 200.5544990052058
333, 223.51580690393166
334, 248.0944460712726
335, 274.0351589307302
336, 300.64672405384226
337, 323.5217133475071
338, 315.60578726875065
339, 274.7049389167714
340, 247.6597305786745
341, 252.2656115688842
342, 258.45833560599203
343, 241.50040423705468
344, 208.7024098032707
345, 173.600441511604
346, 137.38939644203128
347, 103.56975039851568
348, 83.56102452945379
349, 81.97873975089715
350, 99.90578101672327
351, 114.25888850515912
352, 117.36960876285957
353, 112.57886434140346
354, 103.66925733831704
355, 92.01303523024217
356, 80.8932123180075
357, 69.50941883686755
358, 53.09327324120568
359, 31.628105494748525
360, 16.64433548740817
361, 9.106815536635622
362, -0.060174597640070715
363, -17.00226328017561
364, -33.31672742633236
365, -36.8142731799544
366, -31.03981599886174
367, -24.563088850723943
368, -17.941838342090705
369, -14.418623147939797
370, -13.79035542427664
371, -8.38979518718952
372, 4.829576736758099
373, 14.149657811054567
374, 10.91505892538953
375, 1.6504396493292006
376, -3.88433025300219
377, -8.16128364582437
378, -17.472457836463946
379, -28.976740820060513
380, -18.725765027127636
381, 16.13224619540597
382, 39.81233031425836
383, 39.49948159777705
384, 33.32891986899631
385, 33.57987671125011
386, 28.82788411888214
387, 2.9334209081935114
388, -32.27296836445021
389, -48.18461257883064
390, -46.65218108456975
391, -39.14713608279635
392, -27.261993437448837
393, -17.392832193290815
394, -10.919929739020517
395, -7.772262050169957
396, -7.97912202403495
397, -11.777461674651931
398, -19.809437550102302
399, -27.127878049568608
400, -21.00694749573995
401, -3.885786055225253
402, 9.780295346401545
403, 20.549556179459614
404, 40.51302346607372
405, 74.17526314476709
406, 116.77652182734164
407, 168.72529085521637
408, 223.81305295315724
409, 287.0191362026126
410, 346.34711469657486
411, 380.39116782433666
412, 393.6920801612014
413, 402.64910748383045
414, 408.80144707293584
415, 413.71690447256333
416, 417.5403471717691
417, 418.20063433220093
418, 414.9273894509224
419, 402.71398762253557
420, 378.44753387921264
421, 353.85388655075985
422, 343.02986331090324
423, 338.9326569761415
424, 325.8526644562371
425, 304.91520746951755
426, 282.979994307183
427, 262.00590507601555
428, 251.80034204552067
429, 252.96103172487346
430, 235.07574536954598
431, 186.40280512239224
432, 129.69185959863353
433, 80.92843647721384
434, 44.029773724269035
435, 9.750247386855335
436, -16.769514664007147
437, -17.76708951139699
438, -0.14549158898626047
439, 5.485859396181695
440, -1.1104589458009286
441, 2.273958931084053
442, 19.69669892262391
443, 25.35105922864568
444, 9.52754932

File: s5_1_785M-T_Rlab.csv
a,b
320, -31.3806
325, -2.94959
330, 4.04096
335, 37.8023
340, -6.36422
345, 14.3175
350, -0.656266
355, 22.7978
360, -34.446
365, 0.888846
370, -12.3497
375, -1.47859
380, -1.99508
385, -24.7683
390, -27.5422
395, -7.85523
400, -33.0603
405, -13.7055
410, 40.9128
415, 54.0396
420, 39.3237
425, 15.5804
430, 9.06306
435, -29.3195
440, -14.0385
445, -0.961913
450, 21.1413
455, -25.1848
460, 25.8344
465, -20.4517
470, 1.4238
475, 9.29878
480, -31.7821
485, 20.5879
490, 0.996227
495, -12.3162
500, -15.7016
505, -30.58
510, 8.3884
515, 41.5682
520, 51.3411
525, -10.2692
530, 6.52976
535, 0.587059
540, -8.12204
545, -17.0232
550, 5.78572
555, 29.3972
560, -29.0252
565, 12.5684
570, -18.6466
575, 10.6789
580, -20.5942
585, 13.8759
590, -14.4435
595, 12.7068
600, -10.0922
605, -9.23235
610, -2.08299
615, -3.60278
620, 6.08661
625, 3.51515
630, -42.2822
635, 46.4952
640, -24.329
645, 25.5991
650, 3.0872
655, -5.6966
660, -34.5247
665, 20.8347
670, 14.079
675, -21.0045
680, 0.0369164
685, -1.02589
690, 45.1324
695, 2.02077
700, -5.93168
705, -16.6255
710, 0.805353
715, -2.1935
720, 13.7625
725, 0.279315
730, 0.730765
735, -16.9992
740, -1.32259
745, -14.1606
750, 18.568
755, -9.88801
760, -9.4162
765, 11.0018
770, 1.29124
775, -0.371658
780, -11.4506
785, 22.9315
790, -23.1706
795, 18.9226
800, 7.79691
805, -6.61798
810, 11.8821
815, -0.775051
820, 0.57442
825, 6.86937
830, -16.4065
835, -21.1543
840, 26.2672
845, 19.4199
850, -29.6947
855, 7.85582
860, -19.3617
865, -3.60209
870, 35.6628
875, -24.9085
880, -13.9015
885, 5.74316
890, 16.7098
895, -12.5889
900, -2.09836
905, 1.88038
910, -2.25299
915, 18.1704
920, -25.197
925, 35.4991
930, -1.68164
935, -1.10107
940, -8.45926
945, -1.51767
950, 10.0586
955, -7.98429
960, 30.7139
965, -35.4422
970, -11.5767
975, -12.0962
980, 15.4943
985, 8.16851
990, -40.7335
995, -23.6189
1000, 85.7229
1005, -16.5271
1010, -16.4159
1015, -32.4623
1020, 25.3332
1025, 64.932
1030, -8.49011
1035, -24.5381
1040, -3.19885
1045, 5.76796
1050, -47.3356
1055, -11.8748
1060, -91.0056
1065, -29.1312
1070, 117.65
1075, 143.356
1080, 51.1673
1085, -53.8939
1090, -51.5541
1095, -52.3628
1100, -3.6541
1105, -0.66665
1110, 16.4974
1115, -7.9715
1120, -9.17265
1125, 13.3143
1130, 12.4129
1135, -33.8494
1140, 28.5405
1145, -24.4115
1150, 12.6508
1155, -19.7291
1160, 6.80146
1165, -23.8558
1170, 8.86085
1175, -20.3338
1180, 31.4371
1185, 2.15798
1190, -20.3313
1195, -0.625691
1200, -10.125
1205, 1.15916
1210, 3.33044
1215, 10.6704
1220, -22.1589
1225, -9.84337
1230, -0.0167912
1235, -7.3345
1240, 0.0179248
1245, 4.00633
1250, -5.96156
1255, 9.18985
1260, 20.7752
1265, 16.2712
1270, -6.48173
1275, 13.9126
1280, -1.26872
1285, -18.3278
1290, 5.05118
1295, -9.64748
1300, -10.2795
1305, 15.1891
1310, -18.8967
1315, 10.3809
1320, 1.00533
1325, 13.6271
1330, -6.98625
1335, 18.4349
1340, -3.11933
1345, -4.26557
1350, -16.6736
1355, 1.97032
1360, 1.14444
1365, 20.6159
1370, -6.39934
1375, -11.7097
1380, 18.8223
1385, 20.6326
1390, -7.33437
1395, -7.53118
1400, 24.3331
1405, -10.5195
1410, 15.8406
1415, -23.2249
1420, 2.65026
1425, -1.43961
1430, -5.56323
1435, 1.10964
1440, 21.5772
1445, 12.9041
1450, 10.9054
1455, -8.91607
1460, 27.6365
1465, -9.24658
1470, 2.43043
1475, 6.24047
1480, 15.7734
1485, -12.3783
1490, 3.35334
1495, -9.82428
1500, -22.5021
1505, 2.87509
1510, -9.72347
1515, -8.55184
1520, -13.3741
1525, -3.66706
1530, 4.92109
1535, -15.2998
1540, -20.9426
1545, -9.76341
1550, -19.1273
1555, -25.3384
1560, -34.1734
1565, 6.89216
1570, 17.4823
1575, 26.4544
1580, 66.7542
1585, -6.75516
1590, -43.2716
1595, -32.5381
1600, 3.78507
1605, -13.8345
1610, -2.06383
1615, 16.5829
1620, 10.0607
1625, -20.1627
1630, -8.50444
1635, 8.53553
1640, -55.924
1645, 7.51091
1650, -34.0365

File: s5_4_785M-T_Rlab.csv
a,b
320, -52.0553
325, 16.9791
330, 39.5158
335, 145.939
340, 96.3078
345, 190.951
350, 83.8863
355, 30.5729
360, -5.67869
365, -18.2178
370, -23.6026
375, 27.825
380, -30.684
385, 3.79384
390, -45.4663
395, -7.10787
400, 14.3723
405, 234.932
410, 396.119
415, 421.925
420, 476.554
425, 326.465
430, 153.55
435, 1.49008
440, 4.67364
445, -17.2718
450, 42.8693
455, 89.5626
460, 73.7208
465, -27.7349
470, 21.2771
475, 2.51988
480, 1.43638
485, 7.77964
490, 58.7033
495, -27.1132
500, -29.7598
505, 57.6819
510, 113.326
515, 435.19
520, 454.454
525, 264.756
530, 51.986
535, -0.519785
540, -29.4453
545, 22.1045
550, 19.9437
555, 60.4632
560, -16.0881
565, -5.09536
570, 0.72461
575, 44.4338
580, -1.85218
585, 46.1952
590, -30.7765
595, 29.5861
600, 16.1999
605, 14.4249
610, -3.09771
615, -15.1792
620, 22.1471
625, 65.9563
630, 28.3768
635, 75.0324
640, 21.877
645, 11.8627
650, 11.7907
655, 42.8322
660, -3.33911
665, 9.60175
670, -4.37751
675, 19.4453
680, 7.93387
685, 57.086
690, 48.0851
695, 53.4683
700, -8.21017
705, -7.33739
710, 58.6204
715, 58.1085
720, 7.80166
725, 28.1682
730, 65.8978
735, 13.5881
740, 21.3819
745, -35.0042
750, 19.9048
755, 24.7144
760, -14.0482
765, 47.6742
770, 41.0326
775, 11.626
780, 4.95842
785, 23.3758
790, 38.063
795, 57.5339
800, 19.751
805, 31.6303
810, 6.07813
815, 13.9199
820, 38.8201
825, -2.25771
830, 36.7587
835, 24.0418
840, 65.6367
845, -2.80822
850, 44.5978
855, -27.1718
860, 10.1073
865, 25.8851
870, 23.5928
875, -6.46784
880, -0.705293
885, 2.55497
890, 53.0551
895, 27.2634
900, -7.50476
905, 34.0217
910, 5.11362
915, 68.1968
920, -11.9259
925, 44.3279
930, 77.8114
935, 18.0399
940, 53.351
945, 67.1805
950, -24.5724
955, 55.3971
960, 28.721
965, -4.86965
970, -11.5193
975, -5.20708
980, 25.0746
985, 28.7449
990, -14.549
995, 55.0452
1000, 186.52
1005, 90.1645
1010, -2.36951
1015, 61.9987
1020, 40.8578
1025, 88.7767
1030, 6.6736
1035, -2.96257
1040, -8.48168
1045, -22.2052
1050, -31.7766
1055, -32.6902
1060, -58.4146
1065, 47.0095
1070, 761.073
1075, 1477.41
1080, 1193.71
1085, 247.851
1090, -66.7088
1095, -78.5489
1100, -35.1796
1105, -0.289539
1110, 3.33124
1115, 7.13184
1120, 7.0644
1125, 27.4387
1130, 39.3034
1135, 84.0095
1140, 107.5
1145, 38.691
1150, -1.78719
1155, 0.149388
1160, -9.63956
1165, -2.02948
1170, -11.3646
1175, 58.794
1180, 155.988
1185, 77.2583
1190, 15.1798
1195, -29.746
1200, -13.0009
1205, 64.5997
1210, 46.394
1215, 12.6843
1220, 13.4606
1225, 1.46344
1230, 21.4362
1235, 45.2912
1240, 7.77436
1245, 26.5877
1250, 54.7749
1255, 30.5269
1260, 70.9886
1265, 54.7307
1270, 81.9753
1275, -16.0917
1280, 65.2064
1285, 1.51789
1290, 3.86982
1295, 15.9457
1300, -12.357
1305, 29.3403
1310, 0.635258
1315, 40.0408
1320, -0.854046
1325, 49.8014
1330, 56.3287
1335, -14.258
1340, -22.9574
1345, 15.9694
1350, 14.728
1355, 46.3601
1360, 50.885
1365, 13.8848
1370, 49.6157
1375, 32.8759
1380, 1.86847
1385, 83.171
1390, 23.6702
1395, 57.2037
1400, -3.48536
1405, -7.6787
1410, 2.16084
1415, -20.1158
1420, -12.4914
1425, 62.2515
1430, 23.9467
1435, -5.74975
1440, 13.8052
1445, 66.1355
1450, 37.4868
1455, 30.8019
1460, 17.2488
1465, 25.5143
1470, 53.8045
1475, 52.1904
1480, 13.5393
1485, 71.6452
1490, -9.10201
1495, 6.41445
1500, 2.36221
1505, -3.81445
1510, -0.290844
1515, -9.14784
1520, 44.28
1525, -9.98002
1530, -8.83108
1535, 37.9906
1540, -30.8431
1545, -7.29432
1550, -24.9528
1555, -14.4981
1560, -54.1216
1565, 3.57634
1570, 149.201
1575, 893.371
1580, 922.913
1585, 189.225
1590, -68.118
1595, -52.8913
1600, -15.42
1605, -27.0225
1610, 20.7948
1615, 1.40914
1620, 41.2198
1625, -32.5909
1630, 15.2292
1635, 14.7823
1640, -2.61234
1645, -16.5797
1650, -5.21193