Folder: ml/Raman_Spectroscopy_GAN/input/clinical_sample/s6

Note: Raman_Spectroscopy_GAN/input/clinical_sample/s6/s6_1_785M-T_Rlab.txt
##NAMES=
##LOCALITY=
##RRUFFID=
##CHEMISTRY=
320, 38.035377369337766
321, 51.150973405312016
322, 63.036836260773725
323, 74.69968476647182
324, 89.735776053064
325, 114.4581948077448
326, 144.6297433078389
327, 163.46575469861318
328, 170.11925539639424
329, 172.50240474324164
330, 172.69536585465266
331, 174.8489908540264
332, 181.24096458844997
333, 189.2577957551266
334, 195.5920369590972
335, 198.44684023817717
336, 192.90151308306213
337, 179.51989222545853
338, 163.55642511895348
339, 146.46547872367228
340, 138.7312897069396
341, 144.31007894737832
342, 144.8890541895953
343, 125.40006219113138
344, 95.27197357508021
345, 71.96302262920017
346, 53.900027079920164
347, 33.41364914245787
348, 11.613124253944079
349, 7.314608299756856
350, 23.74823863034453
351, 33.71913532187227
352, 23.593040822453077
353, 9.417427253418282
354, 9.361288588310344
355, 16.56302461957739
356, 14.522264983639616
357, 4.787200351079264
358, -1.1805663586587798
359, -2.2798087119281263
360, -3.44673768935354
361, -6.240356970819903
362, -7.802164278995406
363, -6.31717316660297
364, -3.7105668143844923
365, -2.5609060806359594
366, -2.8659984357550456
367, -4.926465911512878
368, -7.783462648982095
369, -4.786987745767874
370, 4.765832335214782
371, 9.926737977479661
372, 6.83228049601712
373, 2.601268316920141
374, 2.14031494562596
375, 3.337342529463058
376, 3.0864514136551406
377, 1.92456211814806
378, 1.5038790120083831
379, 1.9500150245571604
380, 3.378136300253118
381, 5.445258293858842
382, 2.4472078137309836
383, -7.465922255205442
384, -12.284044025233015
385, -3.857206343251164
386, 9.375778489795266
387, 14.670435386123245
388, 13.598193939304565
389, 10.752469761590874
390, 5.999652737394172
391, -2.8604796706549678
392, -15.479679053510608
393, -20.28561445675723
394, -13.909989933870293
395, -3.9830871803505943
396, 5.568268210189672
397, 15.725860462951914
398, 27.527592337998158
399, 44.07586717861841
400, 67.10604280288408
401, 96.82829407552117
402, 133.35227731241457
403, 177.24885405388386
404, 233.9044863584695
405, 304.3966343830007
406, 380.1492787406014
407, 457.0948346600794
408, 526.6989815331526
409, 581.1928618391862
410, 627.0313919199148
411, 675.7324006970034
412, 723.085932308551
413, 754.4288171583194
414, 771.2606834861203
415, 790.6928382323745
416, 814.4011641820366
417, 821.2345369653722
418, 804.3097037403618
419, 786.0343488917983
420, 780.3405662513887
421, 770.3603428097608
422, 735.8149665764472
423, 687.7096569829664
424, 650.5844707096212
425, 620.3000564330164
426, 576.5305561551313
427, 519.8886610485183
428, 472.2612022248545
429, 437.6740932921266
430, 402.33327553973095
431, 360.84749860309967
432, 314.7591507098841
433, 265.152023971415
434, 215.52965199638038
435, 170.54828167543792
436, 131.23668751708738
437, 99.9838963621587
438, 76.49131590318848
439, 59.06932045282474
440, 53.24700015027065
441, 56.85875202504212
442, 64.22471017580483
443, 75.26489406159544
444, 89.87466865509077
445, 99.88814135879875
44

Note: Raman_Spectroscopy_GAN/input/clinical_sample/s6/s6_3_785M-T_Rlab.txt
##NAMES=
##LOCALITY=
##RRUFFID=
##CHEMISTRY=
320, 0.9045367565968263
321, 2.1196328067653667
322, 6.852816799241282
323, 15.960123529830526
324, 28.956623861157368
325, 41.79577538223566
326, 54.38345957701131
327, 66.53248526785319
328, 78.35204908006835
329, 91.07979854850328
330, 104.91914424996503
331, 114.73280194928157
332, 117.70180481512443
333, 113.95478100039645
334, 103.65451308209731
335, 91.30757300929281
336, 89.33081322837461
337, 96.56225661297958
338, 101.35841713801801
339, 101.95290260875436
340, 102.848060046932
341, 105.75026105447796
342, 105.98741410689126
343, 99.71522336593216
344, 93.89382699294401
345, 101.41042299425362
346, 115.49559301434056
347, 108.54733624432674
348, 80.10910275323977
349, 52.057001514601325
350, 29.704285613309366
351, 10.77469274710711
352, -4.8238667842410905
353, -10.13245473858342
354, 3.9658588732913813
355, 28.1660748446061
356, 36.323514202668775
357, 30.632075958013502
358, 27.855120015567536
359, 29.65647639038525
360, 27.421424184934494
361, 18.565696396471594
362, 7.855089779264745
363, -1.7160976104923975
364, -7.322291770989523
365, -5.423292813642547
366, 2.5529229163598757
367, 12.815480648824632
368, 24.588537468399863
369, 36.41497082948854
370, 47.215306737900846
371, 43.833038042972476
372, 21.936022849482015
373, 3.5972600597292512
374, 4.390242079043219
375, 11.163008280801932
376, 5.104081753322589
377, -6.523022001966183
378, -2.6259934748795786
379, 14.721756463596648
380, 22.40186701176117
381, 17.60992646462182
382, 18.008070603553733
383, 29.52562076641425
384, 34.79372891081357
385, 22.05206847168938
386, 4.372990671463413
387, 0.2240065899459296
388, 4.902089616038211
389, 4.987670586208878
390, 0.41509612960180675
391, -4.864681451008437
392, -10.613630668018686
393, -15.150889715959693
394, -18.210065149336515
395, -18.68793681511579
396, -15.790321971650883
397, -10.451581196705774
398, -3.617533742029991
399, 3.0197854508746786
400, 4.564562800879685
401, 3.7084656908537
402, 12.761963884932356
403, 33.4058378591526
404, 60.708204983023734
405, 89.69172001263905
406, 124.1114805061452
407, 165.74127936604918
408, 205.04795864263997
409, 233.3534115208131
410, 254.87178272675555
411, 277.122580715371
412, 301.29626297164486
413, 330.838778751322
414, 365.13625764611925
415, 398.48438603577506
416, 429.38951827498886
417, 450.56183209061055
418, 459.618175197098
419, 463.47358532911994
420, 466.4275230161443
421, 463.1764825556975
422, 447.34459355803756
423, 422.7098785317339
424, 397.694086790485
425, 373.65352264470766
426, 354.8184853157063
427, 340.7647964770322
428, 324.5819697024285
429, 304.4359314367671
430, 273.37375612032065
431, 228.7812676630806
432, 185.25852033903766
433, 153.06455487705853
434, 130.84213897055497
435, 116.78749123384887
436, 106.30560037277382
437, 88.5052683521526
438, 64.3586514067324
439, 39.92725640145136
440, 20.787993531697794
441, 12.293549177261866
442, 14.956025566155859
443, 24.56158615401864
444, 40.26076890087279
445, 52.

File: s6_2_785M-T_Rlab.csv
a,b
320, 0.660317
325, 39.8864
330, 82.8785
335, 77.0941
340, 75.6057
345, 26.1892
350, 27.77
355, 12.039
360, 27.6229
365, 1.56434
370, 22.9288
375, 6.82012
380, 4.52581
385, 23.0597
390, -8.39664
395, -20.5146
400, 4.24952
405, 34.3682
410, 195.959
415, 312.636
420, 380.108
425, 414.258
430, 247.485
435, 142.983
440, 47.0176
445, 17.5597
450, 68.779
455, 81.3242
460, 57.7032
465, -19.7726
470, 8.12492
475, -13.2165
480, 45.8529
485, 71.1131
490, 39.9086
495, 5.94845
500, -11.2404
505, 61.8068
510, 206.699
515, 442.883
520, 477.124
525, 306.578
530, 160.038
535, 43.2171
540, 16.0824
545, 52.3087
550, 55.8336
555, 49.0327
560, 32.7067
565, -4.19804
570, -17.7322
575, -3.67003
580, 18.0932
585, 7.90142
590, 20.5219
595, 31.4855
600, -1.25226
605, 1.66828
610, 8.24902
615, 5.86877
620, 26.0599
625, 23.1176
630, 27.7713
635, 73.3675
640, 35.4327
645, 76.0766
650, 45.4871
655, 3.57166
660, 19.1116
665, 20.2746
670, 34.3197
675, 18.6743
680, 13.7573
685, 32.2901
690, 30.5042
695, 18.0487
700, -1.01556
705, 31.7415
710, 64.9227
715, 60.591
720, 104.138
725, 76.0377
730, 42.477
735, 4.64527
740, 21.3077
745, 3.98541
750, -6.06023
755, 34.5918
760, 14.8321
765, 6.91305
770, 45.2259
775, 49.7195
780, 40.3248
785, 52.1146
790, -2.10951
795, 22.7293
800, 56.4443
805, -4.61511
810, 28.0922
815, 74.5992
820, -15.3499
825, 26.5366
830, 18.5758
835, 2.92531
840, 49.9093
845, 77.5067
850, 39.5718
855, 3.65758
860, 35.1321
865, 11.3796
870, 17.0892
875, 28.2656
880, 7.02149
885, 27.8653
890, 24.8837
895, -9.50702
900, 21.3114
905, 24.8388
910, 16.3076
915, 23.9933
920, -0.665514
925, 42.4274
930, 62.4014
935, 55.9355
940, -2.36384
945, 41.7873
950, 21.3338
955, 52.5515
960, 51.0227
965, 14.2284
970, 25.4908
975, -1.624
980, 57.5094
985, 5.02405
990, -11.9992
995, 75.8682
1000, 105.969
1005, 87.9585
1010, 3.65528
1015, 1.54908
1020, 39.2137
1025, 68.7611
1030, 30.1425
1035, 9.17728
1040, -12.5383
1045, 8.1189
1050, -19.6961
1055, -12.4231
1060, 14.7769
1065, 71.7419
1070, 627.142
1075, 1318.7
1080, 1421.75
1085, 892.401
1090, 280.4
1095, -23.5698
1100, -20.2334
1105, -14.7508
1110, 8.1385
1115, 25.8021
1120, 17.4116
1125, 30.0551
1130, -7.48237
1135, 74.6439
1140, 98.8349
1145, 60.4291
1150, 60.7476
1155, 23.5318
1160, 1.62563
1165, -10.0523
1170, 21.824
1175, 48.5268
1180, 106.523
1185, 111.581
1190, 50.3382
1195, -9.41922
1200, 62.1716
1205, 77.181
1210, 55.8444
1215, 32.7819
1220, 22.8002
1225, 1.01679
1230, -9.53124
1235, 34.161
1240, 48.5154
1245, 159.684
1250, 261.728
1255, 272.11
1260, 264.739
1265, 206.573
1270, 107.685
1275, 46.8007
1280, 17.6421
1285, -3.88776
1290, 19.3593
1295, 0.675208
1300, 45.9511
1305, 29.8088
1310, 7.59194
1315, 24.8801
1320, 7.3018
1325, 45.4422
1330, -16.6802
1335, 7.03013
1340, 10.8886
1345, 2.00596
1350, 34.2546
1355, 35.2683
1360, 14.3274
1365, 48.0649
1370, 18.856
1375, 14.42
1380, -5.29159
1385, 46.2044
1390, 15.1466
1395, 59.0475
1400, 32.3956
1405, 91.4822
1410, 54.2048
1415, 14.9579
1420, 48.2389
1425, 26.8728
1430, 11.528
1435, 24.1893
1440, 18.0299
1445, 35.1565
1450, 28.9163
1455, 19.8757
1460, 12.0462
1465, 29.1386
1470, 40.8563
1475, 52.5743
1480, 42.7903
1485, -2.97575
1490, -4.15712
1495, -2.75545
1500, 18.4965
1505, -5.63358
1510, -13.3554
1515, 51.5507
1520, -0.642805
1525, 22.6764
1530, 37.479
1535, 20.7938
1540, -27.5958
1545, 13.843
1550, 29.1951
1555, -11.3273
1560, -11.9891
1565, 35.8721
1570, 221.44
1575, 652.114
1580, 1015.11
1585, 692.919
1590, 162.155
1595, -13.0386
1600, -26.4497
1605, 5.04495
1610, -8.41368
1615, 22.4977
1620, -6.03654
1625, -6.07291
1630, 0.164937
1635, 21.8023
1640, 40.3893
1645, -9.63565
1650, 20.0322

File: s6_4_785M-T_Rlab.csv
a,b
320, 38.818
325, 134.517
330, 243.609
335, 253.162
340, 231.837
345, 149.684
350, 71.3364
355, 8.04636
360, 22.2605
365, 24.3999
370, -1.34671
375, 23.5603
380, -2.66131
385, 38.4587
390, 28.2179
395, -9.87707
400, 54.4637
405, 100.191
410, 342.723
415, 487.782
420, 530.151
425, 525.53
430, 401.811
435, 294.761
440, 230.475
445, 217.283
450, 219.294
455, 180.576
460, 111.817
465, 39.9523
470, -11.0069
475, 39.8501
480, -0.972188
485, 8.75039
490, 46.0283
495, -0.321921
500, 61.9687
505, 267.811
510, 541.232
515, 829.99
520, 930.352
525, 711.334
530, 411.012
535, 249.396
540, 114.658
545, 46.6603
550, 78.6378
555, 58.5297
560, 17.7987
565, -10.793
570, 23.2197
575, -13.5397
580, 2.11555
585, 17.055
590, 54.6521
595, 43.3384
600, -0.0199896
605, 38.4951
610, -15.4546
615, 22.5399
620, 72.7406
625, 80.2761
630, 104.671
635, 87.642
640, 128.157
645, 111.296
650, 55.8992
655, 40.0506
660, 28.5617
665, 31.6642
670, 32.3677
675, 16.2986
680, 25.9748
685, 4.38201
690, 42.3335
695, 16.1944
700, 40.2089
705, 54.7523
710, 86.7844
715, 180.431
720, 174.983
725, 122.97
730, 74.5704
735, 31.8993
740, 8.529
745, 4.21858
750, 10.5674
755, 32.6773
760, 23.8921
765, -5.92259
770, 57.8017
775, 51.7001
780, 26.482
785, 43.1458
790, 52.1541
795, 49.3401
800, 28.675
805, 36.1984
810, 17.2326
815, 31.3231
820, 7.98685
825, 25.3958
830, 25.7448
835, 55.4887
840, 124.134
845, 132.219
850, 99.6701
855, 65.783
860, 80.4601
865, 48.9027
870, 20.1986
875, 16.5346
880, 0.37372
885, 30.4905
890, 5.20305
895, 28.8436
900, -2.58813
905, 5.50688
910, 62.4903
915, 63.8621
920, 62.8752
925, 68.278
930, 81.079
935, 86.1786
940, 79.8969
945, 58.5815
950, 64.379
955, 54.3987
960, 6.60063
965, -8.81013
970, 86.8235
975, -0.728865
980, 54.0107
985, 16.8887
990, 15.0237
995, 15.8591
1000, 114.051
1005, 68.0369
1010, 24.4673
1015, 62.8219
1020, 69.7936
1025, 37.8568
1030, 2.71712
1035, -8.57624
1040, 26.7247
1045, -25.4016
1050, 15.2139
1055, -3.90964
1060, 194.091
1065, 546.713
1070, 1462.5
1075, 2696.41
1080, 3025.33
1085, 1961.94
1090, 692.908
1095, 99.1951
1100, -25.3397
1105, -18.6588
1110, 16.0581
1115, 1.97515
1120, 29.3699
1125, 24.2386
1130, 47.7547
1135, 142.585
1140, 157.054
1145, 110.886
1150, 49.3585
1155, 25.2437
1160, -11.3953
1165, 48.1039
1170, 70.3252
1175, 167.193
1180, 291.211
1185, 259.905
1190, 75.6188
1195, 13.0034
1200, 44.8065
1205, 67.4399
1210, 50.7339
1215, 56.1333
1220, 29.7403
1225, -9.16917
1230, 25.063
1235, 105.97
1240, 212.819
1245, 315.935
1250, 390.509
1255, 447.679
1260, 423.666
1265, 386.616
1270, 310.737
1275, 241.906
1280, 149.473
1285, 88.6609
1290, 44.4795
1295, 24.5218
1300, 2.10804
1305, 30.3579
1310, 9.72124
1315, 3.37201
1320, 27.1823
1325, 9.80166
1330, 13.1192
1335, -19.2258
1340, 19.515
1345, -7.74305
1350, 36.9863
1355, 39.9564
1360, 40.9392
1365, 59.2047
1370, 38.8194
1375, 71.9221
1380, 102.785
1385, 173.591
1390, 237.625
1395, 220.403
1400, 288.883
1405, 279.308
1410, 201.817
1415, 133.229
1420, 41.9073
1425, 9.91601
1430, 12.8053
1435, 15.5729
1440, -4.54291
1445, 82.7929
1450, 22.1382
1455, 27.4742
1460, 51.8503
1465, 44.9222
1470, 72.7627
1475, 41.7087
1480, 84.727
1485, 27.9867
1490, 32.185
1495, 4.19432
1500, -14.7516
1505, 1.69002
1510, 10.2465
1515, 18.9242
1520, 24.3493
1525, 9.20597
1530, 16.2248
1535, -19.9801
1540, -2.20566
1545, -5.97415
1550, -1.73366
1555, 8.70481
1560, -37.6006
1565, 144.574
1570, 637.361
1575, 1562.9
1580, 2185.21
1585, 1513.24
1590, 530.715
1595, 86.2381
1600, -27.9324
1605, 0.800592
1610, -29.4944
1615, 12.3565
1620, 8.54196
1625, -4.45669
1630, 15.1438
1635, -1.29963
1640, 15.5643
1645, 14.3248
1650, 14.7624