Folder: ml/Raman_Spectroscopy_GAN/input/clinical_sample/s7

Note: Raman_Spectroscopy_GAN/input/clinical_sample/s7/s7_1_785M-T_Rlab.txt
##NAMES=
##LOCALITY=
##RRUFFID=
##CHEMISTRY=
320, 23.09696647166311
321, 17.55394636795245
322, 15.763059839466223
323, 20.878344392587678
324, 34.10289592307345
325, 57.97249289141291
326, 86.42864140222082
327, 109.18204256834724
328, 124.67194652985381
329, 127.65822119423319
330, 117.07729981313605
331, 105.08120124550442
332, 98.33806697017826
333, 94.56479953057715
334, 90.87207431823481
335, 86.37488696817309
336, 78.66134826012058
337, 66.85275253175496
338, 46.36948756377387
339, 22.45090127992262
340, 19.174215298169656
341, 46.241156790274545
342, 73.70339260059154
343, 78.49862646992187
344, 68.46104968022519
345, 58.096232656947905
346, 46.7768865236867
347, 30.790446756995152
348, 15.141594644857832
349, 19.810292171463516
350, 49.82995897816363
351, 74.92840992245874
352, 80.52951958496487
353, 71.38841022092674
354, 52.888844889479515
355, 28.984371546694092
356, 9.146155516864383
357, -4.726755524568944
358, -11.139582321560738
359, -10.7782825405302
360, -9.36354912808929
361, -8.573848417501722
362, -12.423876429425945
363, -23.871279204769962
364, -31.677190761813108
365, -19.668264155514407
366, 2.714462451996951
367, 7.695565233429079
368, -3.16538392457187
369, -8.999103625525095
370, -6.822513907782195
371, 5.367172800406479
372, 29.26699495435787
373, 48.01434901773064
374, 50.35684705649874
375, 37.642022081234245
376, 11.851478277143542
377, -16.92073409839577
378, -25.534752198600472
379, -15.101337537862491
380, 3.7895306694681494
381, 29.87558545174943
382, 43.8841676926495
383, 39.40643523399558
384, 27.744299117124683
385, 16.550204934923386
386, 9.090927969820768
387, 10.890772742066474
388, 15.348601073068494
389, 6.67600657643743
390, -12.309263576742524
391, -26.631908729581482
392, -34.865474530490246
393, -34.03746884377506
394, -23.09084326751872
395, -14.1234770362571
396, -14.107043029831402
397, -17.886763947297368
398, -19.60669411602612
399, -20.691843339069237
400, -24.214055903801636
401, -28.149137787751897
402, -21.68928440178206
403, -4.918356544123526
404, 3.7236672898379766
405, 0.6846932144617313
406, 5.513066461720882
407, 28.092002178163966
408, 60.80153302985309
409, 91.83858708804473
410, 113.64668366769001
411, 112.74241769077526
412, 94.9277650052336
413, 80.25553168066472
414, 71.41708260481391
415, 82.68332312995517
416, 115.50118480739911
417, 147.02148459432647
418, 172.1929316710066
419, 183.5499943599134
420, 176.4509396712001
421, 161.51687971523825
422, 151.51650712850278
423, 144.13058774542515
424, 134.1484355138382
425, 120.55944093286962
426, 100.05441078863987
427, 73.17980171034105
428, 47.04550583753917
429, 28.116181461411543
430, 19.075654305404896
431, 20.783414914780224
432, 29.62083524618356
433, 43.80817392998506
434, 53.772871854594996
435, 50.72958814055164
436, 39.92880754924954
437, 33.94134193468744
438, 30.13563408164009
439, 15.14804129345066
440, -8.209720923361601
441, -19.631048356462998
442, -15.902553097344935
443, -8.628962766673794
444, -1.649409039917372

Note: Raman_Spectroscopy_GAN/input/clinical_sample/s7/s7_2_785M-T_Rlab.txt
##NAMES=
##LOCALITY=
##RRUFFID=
##CHEMISTRY=
320, 51.52978146187161
321, 54.16035999562337
322, 52.556481143052224
323, 44.189711371813246
324, 31.299888871339135
325, 17.818959456892117
326, 7.458365129188678
327, 6.336898128676694
328, 13.764195280064087
329, 18.01129356887577
330, 16.70621372586902
331, 26.053258061316228
332, 55.95040252983563
333, 85.95617095141642
334, 93.49974354358346
335, 86.88654706598936
336, 89.21278214738231
337, 97.59281069330609
338, 85.88238976922912
339, 51.55063968597278
340, 37.1969517464986
341, 55.61040805815719
342, 77.50258615023085
343, 81.8371770185222
344, 75.2245579814662
345, 69.90431960816568
346, 63.713817817581
347, 47.13030585958586
348, 20.936983382329345
349, 3.5858875514459214
350, -2.566088777823097
351, 4.846903206396746
352, 28.103322735934853
353, 48.36368196167314
354, 44.847125921391125
355, 26.750470842785944
356, 16.181544591570855
357, 10.556002688441367
358, -7.004469531208088
359, -37.864258378311206
360, -47.75212254967846
361, -26.61575972823084
362, -5.755911230320635
363, -4.082106608362665
364, -7.8620329788409435
365, 1.0960158079360554
366, 16.043625859738313
367, 15.210052673721293
368, 0.5885386321388069
369, -8.530513460889779
370, -9.70387430959272
371, 0.41297869319896563
372, 23.87886971758053
373, 43.51936977756304
374, 47.525548434339726
375, 39.41609474087636
376, 24.365389509415763
377, 6.0378649980375485
378, -4.372826642049404
379, -7.568358461759999
380, -5.942733749981926
381, -0.24291428473225096
382, 1.26234863184618
383, -4.24660196746845
384, -8.942152351355617
385, -7.6210986988862714
386, -2.4906915942592605
387, 3.6574084827752813
388, 8.42434826495446
389, 4.5728041983129515
390, -6.838649368617553
391, -18.3569377661006
392, -29.5002104077721
393, -36.17780086540006
394, -37.50925752261901
395, -38.039489705837696
396, -40.45267580734253
397, -38.666022652530955
398, -24.847396492294138
399, -4.915953190597065
400, 5.991831019075107
401, 8.50588438196246
402, 6.4145286532984755
403, 1.425033060959322
404, -1.0808547160340822
405, 0.279412670446618
406, 10.470647346659462
407, 32.79488011088324
408, 59.390602949357344
409, 77.7899721959293
410, 86.65493052938291
411, 83.59791558681718
412, 75.5274357444905
413, 92.98757672513057
414, 136.02498909692076
415, 172.71324940484556
416, 199.25853749133603
417, 219.42754952545874
418, 234.43509666874888
419, 239.4692796854979
420, 231.53827530162198
421, 220.80126264403953
422, 219.47159887934504
423, 221.13532043371197
424, 211.48839300106738
425, 195.3883627842406
426, 194.5485814241856
427, 207.73740797518622
428, 206.99195070420683
429, 186.7097910261109
430, 155.29694448258488
431, 116.05482399381253
432, 70.18693736090972
433, 25.558158820884273
434, -8.451027007917219
435, -16.853619036541204
436, -8.138226076835053
437, 0.19741399926533632
438, 7.332508157755001
439, 10.3042285527481
440, 9.178209026073091
441, 5.299512512578076
442, -0.8644581780827139
443, 0.6458593116221891
444, 14.003915191324268
445,

File: s7_3_785M-T_Rlab.csv
a,b
320, -2.10631
325, 73.7926
330, 136.352
335, 139.353
340, 152.338
345, 97.9332
350, 49.2797
355, -3.42105
360, -4.62794
365, -10.3857
370, 15.5226
375, 8.94615
380, 64.0256
385, -3.04922
390, -13.5523
395, -21.4251
400, -37.8777
405, -13.1118
410, 77.6572
415, 328.379
420, 532.236
425, 578.08
430, 370.716
435, 55.5736
440, -18.3481
445, 29.4657
450, 190.553
455, 258.701
460, 107.068
465, -37.7798
470, -22.7024
475, 1.65707
480, -32.409
485, 57.9107
490, 99.3187
495, 11.8112
500, -39.2332
505, -20.9718
510, 48.2432
515, 216.3
520, 235.619
525, 74.9374
530, 31.4045
535, -5.57506
540, 146.535
545, 259.269
550, 187.144
555, 76.2194
560, 7.9796
565, 20.4253
570, -6.66636
575, -15.8938
580, -2.19315
585, 24.1625
590, -5.13474
595, 61.8689
600, 1.07382
605, 10.2834
610, -32.5068
615, -10.5443
620, 19.381
625, 13.2958
630, 41.0164
635, 124.319
640, 75.0912
645, 160.602
650, 103.142
655, 66.9591
660, -25.6135
665, -20.7121
670, 28.6152
675, -4.22621
680, 21.2461
685, 58.0839
690, 25.8408
695, -22.0996
700, 4.51058
705, 3.69722
710, 75.4868
715, 97.1272
720, 162.683
725, 188.671
730, 138.242
735, -13.835
740, 2.3833
745, -6.70628
750, 34.1628
755, 20.3139
760, 25.6705
765, -22.5319
770, 44.8521
775, -11.9756
780, 21.1982
785, -1.43851
790, 47.8726
795, 23.4301
800, 61.8297
805, 75.8187
810, 28.8937
815, 101.292
820, -26.3982
825, 0.97826
830, 43.4897
835, 23.6774
840, -3.70447
845, -4.25301
850, -9.58806
855, 8.64001
860, 119.065
865, 136.127
870, 93.5448
875, 13.5995
880, 12.849
885, 36.8075
890, -7.17628
895, 19.7707
900, -2.15637
905, -3.99642
910, 27.1904
915, 68.4573
920, -30.6494
925, 143.434
930, 128.773
935, 34.8371
940, 1.37295
945, 42.8565
950, 8.20233
955, 31.4596
960, 26.0045
965, -14.6715
970, 1.48575
975, -20.7136
980, 6.61405
985, 4.69358
990, 51.8675
995, -7.46596
1000, -4.89868
1005, 33.3618
1010, 5.48438
1015, 61.4406
1020, 27.0853
1025, 6.83166
1030, -0.731097
1035, 20.133
1040, 45.6541
1045, 5.54569
1050, -17.3738
1055, -21.8777
1060, 12.8883
1065, -5.91896
1070, 253.574
1075, 358.066
1080, 307.444
1085, 90.5365
1090, -22.6412
1095, 5.54456
1100, -19.2115
1105, 45.2063
1110, -5.83042
1115, -0.637447
1120, -11.4808
1125, 54.6688
1130, 39.002
1135, 52.9131
1140, 31.303
1145, 92.2849
1150, 14.2127
1155, 23.313
1160, -10.5012
1165, 15.1858
1170, 3.1931
1175, -24.8947
1180, 5.08994
1185, 50.0699
1190, 58.0694
1195, 4.56283
1200, 37.1419
1205, -8.49744
1210, 61.2868
1215, 42.9796
1220, 4.77375
1225, -27.0228
1230, -3.43626
1235, -7.98737
1240, 50.5557
1245, 82.4653
1250, 164.282
1255, 191.022
1260, 128.703
1265, 47.7678
1270, 68.4496
1275, 57.6456
1280, 3.06242
1285, 9.45718
1290, 33.1847
1295, 4.4489
1300, 3.99547
1305, 12.14
1310, 20.1384
1315, -1.63741
1320, 10.7761
1325, 52.3783
1330, -9.02157
1335, 14.551
1340, -20.513
1345, 44.8427
1350, -6.51419
1355, -1.39991
1360, 85.0946
1365, -3.85604
1370, 18.4139
1375, 7.73459
1380, 32.9216
1385, 11.8691
1390, 13.0748
1395, 33.2607
1400, -23.3214
1405, 41.6397
1410, 15.3915
1415, -14.7072
1420, -19.0588
1425, -14.8137
1430, 11.5169
1435, -6.73439
1440, 60.5435
1445, 29.382
1450, 54.3895
1455, 36.3975
1460, 30.4592
1465, 70.5671
1470, 110.429
1475, 57.0243
1480, 39.9964
1485, -8.10677
1490, 20.1555
1495, -24.9205
1500, 35.8958
1505, 6.75576
1510, 6.64559
1515, 20.5095
1520, 50.2169
1525, -9.76815
1530, 6.2618
1535, 40.8693
1540, -1.85802
1545, -6.31793
1550, -13.7898
1555, 53.6549
1560, -34.8985
1565, 38.2797
1570, -0.936806
1575, 147.945
1580, 256.848
1585, 24.1271
1590, -23.451
1595, -5.09305
1600, 18.1636
1605, 10.729
1610, 52.7451
1615, 28.5905
1620, 30.8405
1625, 23.5471
1630, 17.6527
1635, -0.0395006
1640, 32.375
1645, -10.8169
1650, -8.8909

File: s7_5_785M-T_Rlab.csv
a,b
320, -57.4964
325, -1.43402
330, 32.8495
335, 196.072
340, 361.807
345, 485.38
350, 507.258
355, 469.221
360, 335.101
365, 57.2105
370, -14.2342
375, 9.11913
380, -46.4531
385, 5.1557
390, -36.0027
395, 17.6112
400, -31.3401
405, 36.2914
410, 196.867
415, 287.449
420, 364.825
425, 325.555
430, 196.151
435, 14.5831
440, 25.1949
445, -7.1199
450, 75.9906
455, 110.43
460, 50.2869
465, -11.4535
470, -0.982355
475, 41.3313
480, -12.9587
485, 36.8793
490, 37.1235
495, -16.432
500, -17.6188
505, 12.4585
510, 178.866
515, 354.019
520, 328.233
525, 228.398
530, 18.6376
535, 32.1861
540, 22.1491
545, 38.4681
550, 15.9568
555, 44.6751
560, -14.4962
565, -5.90667
570, 19.5102
575, -3.65944
580, 23.845
585, 61.2854
590, -16.9852
595, 14.228
600, -6.47726
605, 23.1309
610, -39.3373
615, 2.29054
620, -0.391398
625, 79.3591
630, 133.587
635, 185.062
640, 160.665
645, 150.082
650, 28.5148
655, 40.2323
660, -4.39123
665, 0.356828
670, -12.9677
675, -4.78618
680, 3.48827
685, 46.1753
690, 29.4406
695, 7.40142
700, -35.4239
705, 42.5886
710, 159.554
715, 237.549
720, 193.239
725, 70.0993
730, 42.5176
735, 4.33687
740, -31.7502
745, -20.0422
750, 15.1125
755, 23.775
760, 0.173762
765, 8.09512
770, 38.351
775, 45.7457
780, -3.94695
785, 17.8858
790, -0.486275
795, 42.6371
800, 0.293054
805, 45.5423
810, 15.1108
815, 0.0442333
820, 13.2304
825, 11.2693
830, -3.10769
835, 50.165
840, 77.9455
845, 65.7043
850, -18.2265
855, 23.9298
860, 1.69631
865, 29.3171
870, 28.4976
875, -20.589
880, 47.5681
885, 13.4202
890, 29.3686
895, 22.3004
900, 2.15342
905, 9.32331
910, -0.534463
915, 17.496
920, 7.90424
925, 62.3903
930, 46.5935
935, -1.41132
940, 33.4104
945, -0.563043
950, 11.9564
955, 3.06957
960, 30.876
965, -8.45703
970, -17.6041
975, 16.1397
980, 3.55664
985, -10.3465
990, -9.97941
995, 25.7717
1000, 28.0878
1005, -3.06674
1010, 66.2866
1015, 111.804
1020, 58.1501
1025, 54.1506
1030, -2.27227
1035, 14.4347
1040, -6.72432
1045, -11.9646
1050, -61.2341
1055, -28.6102
1060, -27.8887
1065, 333.521
1070, 1117.42
1075, 1462.55
1080, 1029.12
1085, 329.948
1090, -67.4726
1095, -68.6941
1100, -13.0547
1105, -5.22282
1110, -7.27345
1115, 6.44384
1120, -7.71454
1125, 26.8228
1130, 34.3733
1135, 50.8314
1140, 97.9878
1145, 76.8481
1150, 0.601238
1155, 6.5641
1160, 22.7362
1165, -38.1873
1170, 4.95629
1175, 26.6626
1180, 108.12
1185, 80.4398
1190, 10.7462
1195, -22.4744
1200, -1.75971
1205, 54.7141
1210, 37.3548
1215, 17.1355
1220, 2.60595
1225, 9.77722
1230, -8.16837
1235, 1.35559
1240, 39.4213
1245, 0.100683
1250, 93.8252
1255, 61.0333
1260, 19.9934
1265, 71.8498
1270, 4.79437
1275, 29.6207
1280, 6.74093
1285, -14.7683
1290, 55.2691
1295, 7.90838
1300, 21.5844
1305, -6.4668
1310, 8.39304
1315, -0.948655
1320, 23.933
1325, 49.7723
1330, -4.17726
1335, -2.59646
1340, -15.2825
1345, 23.2902
1350, 12.1691
1355, 22.0192
1360, 56.5543
1365, 28.4147
1370, 25.7276
1375, 32.5941
1380, 0.339565
1385, 98.1677
1390, -12.5349
1395, 48.2837
1400, -0.479824
1405, -11.2585
1410, 44.2817
1415, -2.14421
1420, -11.4296
1425, 16.6927
1430, 21.4666
1435, 5.21454
1440, 49.2521
1445, 17.1367
1450, 51.1533
1455, 16.6081
1460, -3.75642
1465, -11.0765
1470, 69.782
1475, 81.2032
1480, 37.2443
1485, 2.29764
1490, -2.50386
1495, -2.36329
1500, -1.3193
1505, 53.3943
1510, -3.13838
1515, -11.5638
1520, -5.28382
1525, 10.3246
1530, 9.35681
1535, -8.21663
1540, -5.04007
1545, 0.274387
1550, -21.0315
1555, 35.3421
1560, -31.9156
1565, -24.4252
1570, 148.395
1575, 475.077
1580, 508.477
1585, 140.131
1590, -43.8471
1595, -48.1136
1600, 25.6751
1605, -8.29621
1610, 35.8313
1615, 15.4874
1620, 26.6997
1625, -16.8845
1630, -8.05271
1635, 35.3068
1640, 23.3882
1645, 12.6368
1650, 16.2384