Folder: ml/Raman_Spectroscopy_GAN/input/clinical_sample/s9

File: s9_1_785M-T_Rlab.csv
a,b
320, 21.1392
325, -0.576551
330, 5.09575
335, -1.16591
340, 19.3848
345, 24.3977
350, 6.82806
355, 42.4836
360, -0.781304
365, -2.88063
370, 26.8065
375, 31.4068
380, 19.1718
385, 5.65388
390, 1.9785
395, -7.49995
400, -5.55226
405, 78.912
410, 169.726
415, 254.579
420, 311.133
425, 279.325
430, 218.512
435, 141.141
440, 35.6533
445, 2.12987
450, 94.4401
455, 60.5989
460, 36.4055
465, -8.53128
470, 15.1209
475, -11.2157
480, 15.561
485, 61.8201
490, 68.9456
495, 37.6918
500, -9.37796
505, 43.5998
510, 52.5599
515, 111.945
520, 193.45
525, 130.241
530, 115.886
535, 48.0639
540, 76.298
545, 101.006
550, 76.5016
555, 91.4203
560, 48.8087
565, 35.267
570, -12.446
575, -5.70852
580, 3.61218
585, 38.3394
590, 33.6607
595, 1.52024
600, 39.0142
605, 21.7008
610, -3.77874
615, -3.53495
620, 32.7346
625, 39.0308
630, 37.6648
635, 42.2346
640, 59.8533
645, 77.0383
650, 5.54786
655, 11.6953
660, 9.44148
665, 10.6
670, 16.1393
675, 20.4869
680, 3.18996
685, 38.3475
690, 92.3244
695, 41.7472
700, 49.3255
705, 2.04033
710, 34.0501
715, 29.2084
720, 1.99799
725, 10.6112
730, -3.57246
735, 9.88352
740, 11.3767
745, 14.0705
750, 35.0818
755, 41.3758
760, -6.7705
765, 16.6746
770, 35.6383
775, 9.60258
780, 22.6523
785, 1.60127
790, 58.5242
795, 27.1456
800, 18.6504
805, 39.4043
810, 26.7043
815, -5.74904
820, 10.103
825, 32.0304
830, 11.0177
835, 9.38684
840, 27.7579
845, 16.4594
850, -6.08583
855, 9.60624
860, 38.3933
865, 46.1418
870, 4.81725
875, 37.8202
880, 2.26881
885, 27.743
890, 37.8952
895, 13.8937
900, 12.1723
905, 43.4255
910, 29.356
915, -0.444021
920, 19.961
925, 44.8775
930, 71.6464
935, 89.1161
940, 38.3118
945, 20.2673
950, 33.14
955, 20.2813
960, 20.2723
965, 2.19235
970, 8.13902
975, 23.1686
980, -4.74184
985, -6.36219
990, 52.1354
995, 118.146
1000, 167.989
1005, 72.224
1010, 13.5838
1015, -14.6893
1020, 82.0332
1025, 109.855
1030, 84.8544
1035, 23.8118
1040, -23.6281
1045, 42.701
1050, 26.0993
1055, 5.59764
1060, 12.2534
1065, 158.716
1070, 329.829
1075, 487.211
1080, 392.354
1085, 214.377
1090, 31.7024
1095, -15.453
1100, 4.11545
1105, -8.45603
1110, 36.9775
1115, 27.8448
1120, -2.47492
1125, 9.03439
1130, 16.307
1135, 3.5785
1140, 44.8052
1145, 9.35319
1150, -3.50507
1155, 21.6279
1160, -0.254713
1165, 49.6143
1170, -2.83863
1175, 3.31312
1180, 47.7803
1185, 32.2942
1190, 44.6977
1195, 2.55576
1200, 3.15298
1205, 75.5713
1210, 61.3522
1215, 9.05113
1220, 28.2306
1225, -6.64614
1230, 15.8144
1235, 16.3463
1240, 22.7661
1245, 100.442
1250, 116.395
1255, 144.914
1260, 132.253
1265, 105.169
1270, 85.1895
1275, 20.6976
1280, 19.6191
1285, 29.3594
1290, 19.7047
1295, -8.30609
1300, 64.3518
1305, 19.8675
1310, 5.87643
1315, 6.79352
1320, 3.69683
1325, 1.98365
1330, 32.7147
1335, 18.8962
1340, -0.56371
1345, 30.4969
1350, 39.1144
1355, -11.9302
1360, 55.7551
1365, 21.0964
1370, 18.783
1375, 11.0341
1380, 9.94163
1385, 40.3661
1390, 37.8486
1395, 60.0385
1400, 7.85969
1405, 63.7735
1410, 10.9294
1415, -0.344483
1420, 24.0549
1425, 30.6455
1430, 11.383
1435, 4.64823
1440, 27.803
1445, 13.409
1450, 45.8795
1455, 37.5806
1460, 46.9424
1465, 43.5352
1470, 65.0838
1475, 29.4526
1480, 2.90924
1485, 51.5096
1490, 29.4044
1495, 17.4014
1500, 21.7792
1505, 7.7858
1510, -3.64524
1515, 35.7612
1520, 12.6369
1525, 7.80262
1530, 3.05896
1535, 10.2129
1540, 7.62886
1545, 16.6947
1550, 50.6643
1555, 42.6144
1560, -5.78964
1565, 59.7062
1570, 105.659
1575, 199.001
1580, 184.896
1585, 153.444
1590, 1.7377
1595, -3.31861
1600, 15.7412
1605, 21.7412
1610, 3.12418
1615, 27.166
1620, 38.3383
1625, 27.8522
1630, 38.1541
1635, 1.1462
1640, 34.6338
1645, 45.0791
1650, 17.5343

File: s9_2_785M-T_Rlab.csv
a,b
320, -5.36315
325, 38.1181
330, 8.69162
335, -10.5383
340, 55.3793
345, 53.5869
350, 54.9265
355, 26.173
360, 34.7427
365, 14.6954
370, 35.7098
375, 29.6661
380, 7.323
385, 7.67228
390, 41.1942
395, -4.96791
400, -11.7403
405, 81.2222
410, 138.47
415, 136.9
420, 190.876
425, 199.292
430, 155.487
435, 70.9755
440, 23.3624
445, -6.89
450, 54.7662
455, 63.5617
460, 41.1643
465, -4.28936
470, 18.5326
475, 1.02891
480, 26.5323
485, 28.432
490, 36.8278
495, 9.6063
500, -3.07899
505, 44.348
510, 116.847
515, 146.452
520, 195.289
525, 171.831
530, 119.291
535, 56.8893
540, 88.4131
545, 7.66381
550, 66.9134
555, 84.7178
560, 16.5648
565, -10.4564
570, 20.9168
575, 13.6219
580, -5.63515
585, 28.9497
590, 24.8957
595, 2.68096
600, 46.9312
605, 50.9058
610, -6.6877
615, 12.6179
620, 36.4866
625, 47.7805
630, 32.6715
635, -0.0595621
640, 34.2517
645, 68.1714
650, 6.37518
655, -5.18342
660, 6.23878
665, 36.6018
670, 25.469
675, -4.62499
680, -0.917282
685, 10.0722
690, 62.6908
695, 28.2053
700, 14.1061
705, 37.7377
710, 1.35039
715, 46.2958
720, 22.9481
725, 32.0852
730, -12.6574
735, 24.3986
740, 27.15
745, 5.52024
750, 48.9124
755, 42.986
760, 12.7179
765, -5.08135
770, 65.6276
775, 54.9751
780, -7.64679
785, 57.3903
790, 60.2368
795, 55.613
800, 28.6533
805, 38.295
810, 4.90397
815, 50.415
820, 12.4147
825, 10.8199
830, 2.18141
835, 20.7477
840, 65.9251
845, 55.4662
850, -8.94105
855, 15.392
860, 57.7217
865, 14.4787
870, 50.2521
875, 50.3093
880, 32.0879
885, 44.3745
890, 0.701036
895, 39.4195
900, 26.9825
905, 9.00025
910, 25.5718
915, 19.778
920, 5.74658
925, 12.0448
930, 60.8167
935, 4.63043
940, 3.69139
945, 40.4068
950, 52.7807
955, 11.6143
960, 18.3852
965, 37.1942
970, 20.1717
975, 7.8109
980, 33.2776
985, 28.5666
990, 6.52942
995, 42.8769
1000, 19.8337
1005, 13.5494
1010, 23.8109
1015, 12.4571
1020, -3.03527
1025, 18.3134
1030, 15.9081
1035, 28.4167
1040, -2.36639
1045, 16.0863
1050, 8.51639
1055, 16.2039
1060, 1.17898
1065, 35.6443
1070, 114.89
1075, 292.447
1080, 335.203
1085, 236.851
1090, 52.405
1095, -16.3365
1100, 1.3928
1105, -9.81216
1110, 21.3213
1115, 9.89378
1120, 37.4266
1125, 9.93065
1130, -2.83665
1135, 52.236
1140, 40.207
1145, 68.133
1150, 36.4233
1155, 1.33884
1160, 25.1063
1165, 23.1313
1170, 5.51228
1175, 41.9037
1180, 15.1745
1185, 41.6283
1190, 24.6309
1195, -5.59755
1200, -0.583432
1205, 52.3196
1210, 59.9179
1215, 28.6633
1220, 22.4761
1225, 11.6991
1230, -4.31222
1235, 4.62375
1240, 11.8074
1245, 52.0341
1250, 93.2198
1255, 103.11
1260, 80.1387
1265, 32.6845
1270, 44.7337
1275, 14.2325
1280, 30.1313
1285, -5.44952
1290, 35.2251
1295, 10.9452
1300, 51.6437
1305, 30.838
1310, 13.0328
1315, 2.95833
1320, 5.87046
1325, 14.1874
1330, 9.27589
1335, 1.35035
1340, 7.68128
1345, 6.37111
1350, 31.6589
1355, 24.1157
1360, 28.3115
1365, 17.1559
1370, 27.9134
1375, 3.5682
1380, 25.1903
1385, 15.8101
1390, 11.5219
1395, 37.6256
1400, 8.84142
1405, 48.0065
1410, 31.4958
1415, -16.848
1420, 1.3478
1425, 41.9061
1430, 10.4697
1435, 34.086
1440, 50.4516
1445, 11.6939
1450, 55.7057
1455, 46.4318
1460, 8.53563
1465, 51.5557
1470, 65.8699
1475, 4.44554
1480, 22.8045
1485, 7.65658
1490, 52.9013
1495, -21.7119
1500, 4.6886
1505, 16.5158
1510, 16.8899
1515, 4.59546
1520, 26.686
1525, -2.53734
1530, -10.1144
1535, 32.1751
1540, 14.4505
1545, -9.74693
1550, 38.9263
1555, -1.23138
1560, -20.2834
1565, 8.54775
1570, 84.4107
1575, 197.012
1580, 273.651
1585, 125.481
1590, 14.6158
1595, -8.29507
1600, -8.73195
1605, -5.4685
1610, 6.76556
1615, -3.17242
1620, -1.8919
1625, 6.12102
1630, 24.8841
1635, 3.17475
1640, 27.3968
1645, 24.9706
1650, 0.246856

File: s9_3_785M-T_Rlab.csv
a,b
320, 1.18577
325, 0.681529
330, 17.4314
335, 7.99029
340, -4.16387
345, 32.5817
350, 10.258
355, 82.1222
360, 101.053
365, 59.7073
370, 20.2576
375, 26.3501
380, 4.96244
385, -8.11405
390, 15.5675
395, -10.2417
400, 13.8465
405, 22.3127
410, 90.9438
415, 161.436
420, 220.969
425, 222.19
430, 182.372
435, 99.5049
440, 3.08103
445, 29.7042
450, 61.0777
455, 101.418
460, -11.0781
465, 14.5935
470, 5.0929
475, 14.014
480, -3.08434
485, 45.4619
490, 39.8371
495, 5.41799
500, 18.1195
505, -0.865057
510, 60.1597
515, 136.372
520, 175.779
525, 139.38
530, 66.3363
535, 26.8284
540, 60.1581
545, 73.9403
550, 72.2311
555, 48.5047
560, 39.0737
565, -0.896668
570, 9.65402
575, 14.7476
580, 17.6117
585, 62.3974
590, 1.45398
595, 24.7928
600, 43.0465
605, -9.6155
610, 2.32945
615, -2.46738
620, 35.8828
625, 4.11759
630, 41.1124
635, 48.8826
640, 55.459
645, 9.21301
650, 17.7782
655, -2.56048
660, 19.5639
665, 0.116216
670, -3.54133
675, 38.9545
680, 1.09223
685, 14.7973
690, 38.4322
695, 22.0088
700, -1.12726
705, 26.7244
710, 43.2311
715, 28.0028
720, 23.9722
725, 16.7497
730, 0.895137
735, 3.39856
740, -4.0527
745, 9.80536
750, 19.0246
755, -6.50762
760, 19.8169
765, 21.7731
770, 21.1708
775, 52.7736
780, 21.445
785, 54.3829
790, 0.959389
795, 55.564
800, 22.8672
805, 23.758
810, 44.1475
815, -7.22467
820, 25.1775
825, 17.1503
830, 23.3264
835, 33.2525
840, 29.1278
845, 23.0951
850, 52.508
855, 9.59763
860, 18.2247
865, 10.1947
870, 39.6819
875, 30.009
880, 20.8264
885, 0.819856
890, 22.7553
895, 21.0347
900, 7.06438
905, 16.3975
910, 21.3603
915, 33.751
920, 2.11136
925, 37.7513
930, 67.3892
935, 57.2233
940, 15.9209
945, 3.8899
950, 14.8279
955, 42.1085
960, 25.9139
965, 27.2323
970, -0.267716
975, 12.6357
980, 13.6886
985, 11.9628
990, 20.4571
995, 25.1249
1000, 22.8109
1005, 11.7569
1010, 28.9262
1015, 13.7837
1020, 13.1006
1025, 3.29173
1030, 16.3818
1035, 9.13457
1040, 16.0711
1045, 34.5251
1050, -6.94077
1055, 1.96437
1060, 28.8858
1065, 48.2991
1070, 119.547
1075, 276.415
1080, 243.191
1085, 182.968
1090, 23.5891
1095, -1.43313
1100, 3.19153
1105, 9.86893
1110, 35.95
1115, -20.117
1120, 9.50382
1125, 28.5531
1130, 37.4811
1135, 16.9677
1140, 45.0508
1145, 15.2614
1150, 14.2197
1155, 19.3466
1160, 12.2443
1165, 8.08197
1170, 14.3517
1175, -5.1296
1180, 22.796
1185, 28.5079
1190, 63.3013
1195, 26.7719
1200, 6.2329
1205, 51.3464
1210, 52.3385
1215, 17.2459
1220, 15.2044
1225, -14.248
1230, 18.163
1235, 41.6463
1240, 27.6934
1245, 18.0171
1250, 79.0674
1255, 65.9991
1260, 68.2349
1265, 30.9671
1270, 47.652
1275, 51.8555
1280, 28.6772
1285, 33.9061
1290, -12.1514
1295, 40.0049
1300, 47.8128
1305, -11.7269
1310, 32.6493
1315, 22.7966
1320, 20.8173
1325, 19.5992
1330, 15.5583
1335, 6.07859
1340, 37.5042
1345, -1.23835
1350, 41.7168
1355, 10.1887
1360, -1.33702
1365, 28.0118
1370, 3.88117
1375, 31.8775
1380, 33.941
1385, 58.5564
1390, 25.2313
1395, 75.0647
1400, 41.463
1405, 31.7891
1410, 25.2531
1415, 29.8623
1420, -3.46697
1425, 28.2466
1430, 11.3906
1435, 9.38022
1440, 14.6477
1445, 51.5321
1450, 24.752
1455, 61.8046
1460, 21.4251
1465, 42.0638
1470, 49.5612
1475, 63.0432
1480, 30.6748
1485, 13.4742
1490, 15.8941
1495, 25.4598
1500, 19.0418
1505, 16.8671
1510, -2.24341
1515, 45.9047
1520, -5.21983
1525, 18.3927
1530, 21.5851
1535, -9.2336
1540, 30.3954
1545, 17.7118
1550, -0.206315
1555, 1.75874
1560, -11.3476
1565, 2.03267
1570, 62.3324
1575, 166.618
1580, 208.602
1585, 167.53
1590, 17.8771
1595, 35.4442
1600, 0.602305
1605, 44.8098
1610, -8.24103
1615, 54.7473
1620, 27.4278
1625, 16.9507
1630, 18.4639
1635, 42.2827
1640, 13.7941
1645, 27.3745
1650, 23.9289

File: s9_4_785M-T_Rlab.csv
a,b
320, -6.937
325, 13.6465
330, 34.4673
335, 34.7006
340, 6.28961
345, 61.3981
350, 72.3127
355, 58.4669
360, 31.7902
365, 18.5431
370, 19.4022
375, 13.6452
380, 28.4474
385, 3.54681
390, 2.80372
395, 26.6709
400, 7.9358
405, 86.1962
410, 131.092
415, 221.128
420, 280.018
425, 297.219
430, 227.192
435, 135.171
440, 67.4696
445, 3.05306
450, 27.5966
455, 65.8111
460, 42.1925
465, 2.93436
470, 24.5268
475, -20.0058
480, 37.8499
485, 53.6985
490, 79.9785
495, -4.7624
500, 7.30616
505, 30.1075
510, 43.3025
515, 129.72
520, 179.627
525, 101.018
530, 52.6393
535, 60.2013
540, 39.315
545, 80.1278
550, 65.2761
555, 48.7432
560, 11.7014
565, -4.56644
570, 15.4653
575, 12.669
580, -1.38867
585, 44.2577
590, 14.7259
595, 13.998
600, -1.34847
605, 20.9514
610, -4.74753
615, 3.82851
620, 14.5473
625, 33.1496
630, 60.1151
635, -7.00055
640, 71.4354
645, 72.348
650, 35.885
655, 14.7871
660, 38.6182
665, -7.24288
670, 29.6659
675, 37.1574
680, 15.1842
685, 0.636448
690, 13.5299
695, 19.8906
700, 17.2886
705, 0.837036
710, 26.2773
715, 2.67276
720, 20.51
725, 10.8569
730, -2.67111
735, 23.7717
740, 22.9025
745, -7.59626
750, 52.6734
755, 44.0091
760, 3.28623
765, 30.5979
770, 44.6199
775, 52.6837
780, 51.3779
785, 0.723274
790, 39.3185
795, 52.9699
800, 50.8152
805, 19.5274
810, 19.9701
815, -3.91773
820, 22.8328
825, 14.1357
830, 26.7987
835, 21.047
840, 2.78596
845, 19.4703
850, 1.1194
855, 0.127895
860, 22.6313
865, 22.2325
870, 15.7525
875, 22.3523
880, 18.8959
885, 53.6198
890, 22.2092
895, 12.806
900, 23.5914
905, 28.5219
910, -6.3383
915, 33.998
920, 30.1195
925, 26.8489
930, 74.8046
935, 43.537
940, 16.0849
945, 26.6939
950, 21.3382
955, 14.5936
960, 23.2528
965, -6.81036
970, -2.44762
975, -1.14529
980, 43.4078
985, -0.282863
990, -3.25313
995, 13.3727
1000, 20.3011
1005, 36.8325
1010, 26.6104
1015, 4.18563
1020, -0.486013
1025, 2.14346
1030, 1.41112
1035, 24.8746
1040, 4.03541
1045, 6.46931
1050, -7.01819
1055, 6.8561
1060, 35.0577
1065, 43.2179
1070, 101.202
1075, 252.81
1080, 322.566
1085, 183.026
1090, 65.2707
1095, -11.2306
1100, 35.3125
1105, 20.3475
1110, -2.52759
1115, 0.317019
1120, 20.5964
1125, 15.1343
1130, 19.2409
1135, 23.3359
1140, 43.8854
1145, 26.9834
1150, 20.244
1155, 14.8571
1160, 37.6645
1165, -14.4651
1170, 27.9524
1175, 15.3711
1180, 3.27742
1185, 29.9656
1190, 51.8
1195, 6.91558
1200, 19.3864
1205, 8.20723
1210, 55.1976
1215, 0.213453
1220, 31.4336
1225, -10.8956
1230, 18.5895
1235, 37.8709
1240, 43.1708
1245, 86.8885
1250, 73.2005
1255, 112.04
1260, 105.963
1265, 52.3182
1270, 62.1543
1275, 86.9065
1280, 60.6409
1285, 73.2017
1290, -20.4908
1295, 32.7175
1300, 24.4674
1305, 35.1691
1310, 51.9523
1315, 33.0314
1320, 11.3943
1325, 71.9138
1330, 15.3952
1335, -6.53655
1340, 11.1783
1345, 37.7758
1350, 22.34
1355, 0.886893
1360, 32.3079
1365, 11.1066
1370, 41.5834
1375, 31.1738
1380, 35.8657
1385, 64.3359
1390, 45.8816
1395, 54.8832
1400, 24.7157
1405, 40.2717
1410, 46.4382
1415, -7.77608
1420, 19.2183
1425, 60.7847
1430, 40.537
1435, 18.5224
1440, 45.3712
1445, 40.6213
1450, 42.7238
1455, 70.6107
1460, 72.3673
1465, 32.9337
1470, 75.9071
1475, 86.7796
1480, 63.1163
1485, 12.1305
1490, 5.29836
1495, 25.7879
1500, -11.9603
1505, 38.4186
1510, 20.0512
1515, 13.4635
1520, -5.78797
1525, 29.1104
1530, 0.232888
1535, 30.3948
1540, 15.2605
1545, -8.84544
1550, 30.821
1555, 5.07306
1560, -12.5283
1565, 41.1712
1570, 28.3334
1575, 158.101
1580, 254.559
1585, 184.364
1590, 16.8401
1595, -1.35216
1600, 1.77163
1605, 25.1166
1610, 30.6704
1615, 15.0307
1620, 5.61436
1625, 41.0097
1630, 22.5713
1635, 30.012
1640, 18.1127
1645, 24.4107
1650, 2.75901