Folder: ml/Raman_Spectroscopy_GAN/input/raw/streptavidin-negative

File: Streptavidin1ug_1_785M-T_Rlab.txt
a,b
320, 0.329687
325, 15.7905
330, 53.2804
335, 49.7771
340, 35.0473
345, 50.0612
350, 32.9778
355, 7.46268
360, -6.03524
365, 26.7323
370, 7.30015
375, 28.1885
380, 5.77192
385, 19.2561
390, 25.7551
395, 20.1816
400, 1.38227
405, 16.1973
410, 4.96276
415, 65.3798
420, 112.985
425, 87.4916
430, 77.4118
435, 6.5027
440, 47.3117
445, 3.31341
450, 36.8636
455, 24.715
460, 33.2865
465, 47.0021
470, -19.7877
475, 5.29927
480, 36.5272
485, 0.879331
490, 29.0482
495, 24.0229
500, 3.57845
505, 0.14361
510, 36.3292
515, 63.1188
520, 75.8428
525, 106.242
530, 91.0997
535, 89.9002
540, 71.5101
545, 72.8953
550, 45.6489
555, 10.9128
560, 40.122
565, 9.18324
570, -6.21067
575, 5.12447
580, 6.01955
585, 24.1003
590, -1.85807
595, 29.0041
600, 15.0702
605, 13.6665
610, 13.6637
615, 13.7369
620, 1.54303
625, 10.7124
630, 58.1009
635, 25.4141
640, 60.3917
645, 5.51309
650, 26.8325
655, 21.8164
660, 51.5198
665, 43.4556
670, 77.8227
675, -4.10456
680, 45.0977
685, 29.5942
690, 27.9569
695, 37.9722
700, 51.2873
705, 59.1657
710, 9.5173
715, 32.9823
720, 44.7347
725, 65.3044
730, 5.85269
735, 43.3689
740, 2.59182
745, 18.3444
750, 39.5441
755, 50.741
760, -2.27633
765, 24.5962
770, 8.85622
775, 65.3933
780, 35.8978
785, 39.5024
790, 7.52277
795, 43.9612
800, 42.28
805, 39.283
810, 31.6485
815, 13.9979
820, 33.4784
825, 42.0336
830, 8.98073
835, -1.97744
840, 34.9487
845, 11.4216
850, 32.2302
855, 56.9673
860, 7.53633
865, 9.06196
870, 48.2989
875, 111.498
880, 13.2973
885, 50.0846
890, 46.9147
895, 15.3005
900, 8.9492
905, 4.50013
910, 0.640074
915, 54.8279
920, 13.6026
925, -5.80489
930, 41.8978
935, 30.8437
940, 65.1565
945, 21.9844
950, 58.6384
955, 13.9355
960, 45.966
965, 3.47817
970, 11.6564
975, 6.94391
980, 46.5113
985, 52.8846
990, 27.77
995, 11.4097
1000, -12.6128
1005, 0.685326
1010, 57.7558
1015, 16.9491
1020, 11.0232
1025, 17.4229
1030, 5.22038
1035, 32.2818
1040, 30.0754
1045, 39.8506
1050, 24.7902
1055, -5.20376
1060, 38.6727
1065, 33.7143
1070, 114.286
1075, 139.616
1080, 183.924
1085, 101.782
1090, 19.4428
1095, 50.0749
1100, 17.5128
1105, 2.95315
1110, 17.2324
1115, 48.1721
1120, 57.3444
1125, 83.0381
1130, 57.6777
1135, -5.08623
1140, 42.982
1145, 3.94965
1150, 24.8675
1155, 62.4358
1160, 21.8625
1165, 12.4278
1170, 61.7512
1175, -1.42262
1180, 2.39601
1185, 37.0949
1190, 43.7853
1195, 4.47553
1200, 49.4586
1205, 12.4329
1210, 39.1815
1215, -3.20331
1220, 31.9577
1225, 55.4427
1230, 0.404947
1235, 19.6327
1240, 53.6461
1245, 14.1746
1250, 8.19765
1255, 20.3971
1260, 63.437
1265, 68.3256
1270, 24.0143
1275, 42.5434
1280, -0.147385
1285, 47.4071
1290, -2.83847
1295, 37.3238
1300, 2.94078
1305, 23.336
1310, 14.9061
1315, 35.4968
1320, 3.96402
1325, 50.4161
1330, 19.76
1335, 41.763
1340, -8.82113
1345, 33.061
1350, 58.0217
1355, 53.9443
1360, 54.4857
1365, 69.0628
1370, 25.5631
1375, 66.4183
1380, 39.9431
1385, 29.5667
1390, 9.64583
1395, 53.6766
1400, 71.7595
1405, 13.1054
1410, 21.9624
1415, -1.54156
1420, 18.1154
1425, 33.3218
1430, 18.7362
1435, 13.5695
1440, 30.9807
1445, 74.5286
1450, 36.3482
1455, 30.7019
1460, 74.1095
1465, -2.84264
1470, 47.7101
1475, 3.11127
1480, 21.9175
1485, -0.28652
1490, 42.4681
1495, 12.7592
1500, 0.127936
1505, 18.8967
1510, -7.13407
1515, 32.4502
1520, 26.8363
1525, 45.682
1530, 33.9624
1535, 5.23273
1540, 3.31956
1545, -19.7795
1550, 34.2233
1555, 33.1836
1560, 40.748
1565, -21.6306
1570, 40.7614
1575, 69.4149
1580, 122.66
1585, 108.125
1590, 37.568
1595, 43.0987
1600, -0.450413
1605, 7.08047
1610, 12.5465
1615, 35.6429
1620, 33.0029
1625, -13.81
1630, 53.5975
1635, 41.9305
1640, 100.026
1645, 30.363
1650, -2.68232

File: Streptavidin1ug_2_785M-T_Rlab.txt
a,b
320, 16.7221
325, 29.7301
330, -3.83305
335, 40.8919
340, 29.1958
345, 42.1564
350, 3.53287
355, 7.85905
360, -0.138768
365, 13.024
370, 57.3176
375, 40.0486
380, -6.11932
385, -4.26702
390, 13.4533
395, 2.76628
400, 36.5538
405, 0.807838
410, 70.633
415, 115.892
420, 213.001
425, 224.366
430, 149.924
435, 97.5397
440, 24.5748
445, 4.43991
450, 15.7391
455, 53.6452
460, -7.88827
465, 12.8886
470, -11.2255
475, 49.2735
480, -17.318
485, 32.7584
490, 87.3644
495, 18.5897
500, 0.609664
505, 59.4981
510, 135.857
515, 167.131
520, 274.25
525, 201.802
530, 223.599
535, 203.156
540, 195.119
545, 183.795
550, 134.455
555, 134.243
560, 56.3847
565, 21.8701
570, -7.3198
575, 18.8584
580, 11.0395
585, 21.2163
590, 5.39714
595, 16.5696
600, 23.4451
605, 13.9396
610, 13.9915
615, -0.420724
620, 16.987
625, 15.8976
630, 46.7844
635, 1.95212
640, 28.4351
645, 62.1483
650, 14.093
655, -9.1191
660, 57.3463
665, -2.92046
670, 18.011
675, 36.919
680, 15.2395
685, -8.29642
690, 61.4799
695, 14.6366
700, 45.878
705, 28.7348
710, 54.0098
715, 7.90366
720, 64.7169
725, -11.4855
730, 43.9137
735, 39.4415
740, 0.186208
745, -4.99441
750, 70.5732
755, 22.9874
760, 12.2433
765, 29.5941
770, 76.5034
775, 42.5316
780, 11.1014
785, 31.1148
790, 33.9023
795, 36.0657
800, 15.9845
805, 33.5544
810, -4.21287
815, 54.1511
820, 22.8976
825, 12.1251
830, 38.204
835, 25.8556
840, 3.2877
845, -9.06319
850, 35.5869
855, 11.987
860, 41.3335
865, 46.7333
870, 16.21
875, 10.0556
880, 49.3023
885, -2.90816
890, 40.2816
895, 39.8714
900, 33.6056
905, 24.6151
910, -12.0161
915, 72.1457
920, 13.4742
925, 44.3608
930, 26.6139
935, 15.9275
940, 26.7383
945, 25.0596
950, 33.2914
955, 5.77569
960, 18.6513
965, 42.9658
970, 23.7232
975, 5.86048
980, 53.5183
985, 117.655
990, 62.5097
995, 108.193
1000, 8.74748
1005, 13.9005
1010, 1.96861
1015, 38.3698
1020, -2.12771
1025, 45.9748
1030, 23.6717
1035, -1.10223
1040, 42.5394
1045, 5.07404
1050, -0.452902
1055, -3.41588
1060, 14.9853
1065, 44.8614
1070, 88.9225
1075, 141.678
1080, 179.852
1085, 129.564
1090, -6.92938
1095, -3.37417
1100, 2.28033
1105, 46.9683
1110, -0.200016
1115, 25.6096
1120, 61.7788
1125, 19.1591
1130, 2.28746
1135, 41.5625
1140, 67.7667
1145, 2.35002
1150, 29.7961
1155, 61.3069
1160, -10.9243
1165, 42.451
1170, 31.3658
1175, 27.2904
1180, 51.6143
1185, 10.7613
1190, -7.9342
1195, 54.9875
1200, 50.3466
1205, 77.3388
1210, 84.6156
1215, 11.9086
1220, -3.83383
1225, 7.3302
1230, 20.2431
1235, 35.7279
1240, 25.278
1245, 49.9377
1250, 70.9853
1255, 101.525
1260, 87.4345
1265, 32.6514
1270, 78.3679
1275, 91.0851
1280, 10.7044
1285, 31.2045
1290, -5.70767
1295, 42.7367
1300, 2.29235
1305, 27.7921
1310, 54.5952
1315, 31.5209
1320, 10.6123
1325, 54.7502
1330, 28.6191
1335, 12.3699
1340, 26.8062
1345, 46.2729
1350, 23.4558
1355, -0.435972
1360, 32.0468
1365, 73.6227
1370, 40.2817
1375, 68.1977
1380, 0.407833
1385, 36.7792
1390, 23.9061
1395, 8.21793
1400, 32.321
1405, -1.16254
1410, 7.33378
1415, 36.5207
1420, 12.5271
1425, 21.127
1430, 26.9724
1435, -3.55894
1440, 44.2013
1445, 38.6916
1450, 14.9866
1455, 19.1605
1460, 18.0727
1465, 44.3757
1470, 0.343851
1475, 36.4402
1480, 27.7955
1485, 11.5479
1490, -10.0271
1495, 51.4907
1500, 26.9969
1505, 10.9219
1510, 2.29554
1515, -2.80276
1520, 23.5759
1525, 17.8548
1530, 3.12082
1535, 9.26249
1540, -18.1518
1545, 23.2344
1550, 55.5282
1555, 73.2929
1560, 7.53074
1565, 37.2796
1570, -12.3285
1575, 51.643
1580, 46.2209
1585, 65.09
1590, 7.20477
1595, 52.5385
1600, -4.35098
1605, 14.5202
1610, 14.2117
1615, 59.0317
1620, 10.3503
1625, 58.6766
1630, 48.6403
1635, -10.7942
1640, 11.2455
1645, 44.0562
1650, 25.8475

File: Streptavidin1ug_3_785M-T_Rlab.txt
a,b
320, -1.3889
325, -0.180123
330, 23.5499
335, -2.67511
340, 45.68
345, 0.655207
350, 32.273
355, 33.7995
360, 12.626
365, -5.48119
370, 82.8209
375, 29.3678
380, 14.0594
385, 57.5665
390, -6.73881
395, -0.970178
400, 73.4055
405, 106.889
410, 179.861
415, 290.23
420, 361.309
425, 382.471
430, 346.026
435, 156.977
440, 91.4148
445, -0.396123
450, 78.2018
455, 53.3383
460, 119.696
465, 43.0263
470, -9.99213
475, 23.9824
480, -3.23562
485, 43.1119
490, 12.8726
495, 80.4622
500, -0.640748
505, -10.3422
510, 127.323
515, 140.113
520, 231.026
525, 238.703
530, 225.172
535, 134.479
540, 60.5037
545, 109.965
550, 69.455
555, 81.1859
560, 39.9628
565, 24.6513
570, -6.67537
575, 10.7187
580, 37.8696
585, -3.66101
590, 19.2282
595, 5.8015
600, 37.4164
605, 22.0641
610, 9.71031
615, 5.34759
620, 9.95323
625, 18.9025
630, 31.5158
635, 53.6574
640, 56.3924
645, 33.6412
650, 23.0455
655, -12.7842
660, 23.9927
665, 40.8114
670, 13.8321
675, 3.99071
680, 25.283
685, -4.99946
690, 37.8238
695, 28.3492
700, 21.8659
705, 34.074
710, 12.8138
715, 57.0413
720, 35.1982
725, -6.21408
730, 23.0589
735, -0.982787
740, 22.8679
745, -9.36715
750, 18.5754
755, 20.1586
760, 61.8065
765, 20.5778
770, 25.4269
775, 34.0176
780, 61.1806
785, 18.8647
790, 27.7508
795, 26.6922
800, -6.68995
805, 21.0846
810, 30.8995
815, 49.5845
820, 53.3785
825, 2.56912
830, 40.15
835, 12.7098
840, -9.85239
845, 24.4653
850, -3.70644
855, 36.8373
860, 51.877
865, 1.68868
870, 12.053
875, 59.2105
880, 123.983
885, 0.339638
890, 14.1053
895, 20.7236
900, 6.56676
905, 15.0589
910, 37.7529
915, 22.4949
920, 35.7088
925, 56.6014
930, 13.0997
935, 2.24124
940, 30.3268
945, 2.05929
950, 1.81993
955, 36.3655
960, 51.771
965, 33.6237
970, 36.7572
975, -7.27019
980, 20.316
985, 55.599
990, 98.6597
995, 104.261
1000, 41.7573
1005, 0.994034
1010, 44.1505
1015, -14.27
1020, 42.6055
1025, 14.9651
1030, -8.49408
1035, 31.7393
1040, 66.7899
1045, -1.82048
1050, 2.09527
1055, 26.9304
1060, -3.80221
1065, -10.9027
1070, 49.7231
1075, 144.333
1080, 138.764
1085, 110.669
1090, 88.0271
1095, 5.20711
1100, 13.0753
1105, 16.0766
1110, 43.8605
1115, 10.0668
1120, -1.81844
1125, 35.3189
1130, 50.8203
1135, 32.7408
1140, 15.8663
1145, 34.6403
1150, 31.2289
1155, 9.93053
1160, 2.20424
1165, 41.6325
1170, -8.15444
1175, 31.5785
1180, 49.3365
1185, 16.194
1190, 0.554721
1195, 68.814
1200, 21.9964
1205, 95.309
1210, 65.7829
1215, 6.54904
1220, 3.65862
1225, 34.0022
1230, -15.4143
1235, 29.3836
1240, 19.5838
1245, 103.452
1250, 135.751
1255, 158.816
1260, 223.87
1265, 189.273
1270, 130.16
1275, 85.9793
1280, 13.7157
1285, 44.4587
1290, 36.1393
1295, 46.4889
1300, -3.28276
1305, 11.8347
1310, 5.14129
1315, 17.5263
1320, 17.7331
1325, 37.7171
1330, -0.232658
1335, 19.54
1340, -4.70466
1345, 8.53206
1350, 26.1003
1355, 20.8844
1360, 28.9351
1365, 22.5657
1370, 58.0345
1375, -4.40127
1380, 21.8775
1385, 45.965
1390, 13.4732
1395, 0.880626
1400, 59.3886
1405, 10.8974
1410, 7.12649
1415, 56.1773
1420, 24.026
1425, 19.5313
1430, 30.0187
1435, 22.2472
1440, 8.1596
1445, 24.6736
1450, 55.1809
1455, 8.68894
1460, 42.5751
1465, 12.759
1470, 17.2597
1475, 37.8976
1480, 63.7911
1485, 28.0619
1490, 31.2757
1495, 20.7359
1500, 4.74876
1505, 9.55159
1510, 0.631313
1515, 1.7886
1520, 9.26921
1525, 12.6072
1530, 32.0974
1535, 3.59167
1540, 34.9254
1545, 32.4933
1550, 34.7745
1555, 8.47948
1560, 40.2287
1565, -6.43768
1570, 4.30164
1575, 13.5403
1580, 92.926
1585, 109.917
1590, 103.162
1595, 5.66324
1600, 15.8423
1605, 47.18
1610, -2.98855
1615, 60.8491
1620, 71.8498
1625, 36.4168
1630, 31.7007
1635, 32.3592
1640, 5.29039
1645, 2.63236
1650, 8.76074